Altitude,ax,ay,az
1527.58-1.83,-0.20,"9.09
"
1527.97-1.81,-0.24,"9.07
"
1528.06-1.91,-0.24,"9.04
"
1527.49-1.95,-0.16,"9.06
"
1527.77-1.86,-0.24,"9.08
"
1528.25-1.86,-0.17,"9.01
"
1528.06-1.87,-0.17,"8.99
"
1527.97-1.93,-0.25,"9.03
"
1527.87-1.86,-0.26,"9.06
"
1528.06-1.86,-0.21,"9.05
"
1527.77-1.85,-0.24,"9.09
"
1528.06-1.88,-0.16,"9.02
"
1528.35-1.82,-0.21,"8.94
"
1527.97-1.83,-0.24,"9.00
"
1528.16-1.90,-0.20,"9.03
"
1528.16-1.90,-0.18,"9.11
"
1527.97-1.87,-0.21,"8.97
"
1528.25-1.94,-0.23,"9.02
"
1528.25-1.82,-0.30,"8.96
"
1528.44-1.86,-0.24,"9.06
"
1528.16-1.86,-0.22,"9.00
"
1527.68-1.82,-0.22,"9.11
"
1527.97-1.84,-0.22,"9.05
"
1528.25-1.92,-0.31,"9.00
"
1527.87-1.88,-0.21,"9.06
"
1528.06-1.90,-0.20,"9.10
"
1528.06-1.86,-0.22,"9.06
"
1527.68-1.86,-0.14,"8.98
"
1527.87-1.96,-0.23,"9.00
"
1527.68-1.92,-0.23,"9.06
"
1528.16-1.81,-0.20,"9.00
"
1528.35-1.81,-0.20,"9.06
"
1527.77-1.89,-0.22,"8.99
"
1528.25-1.96,-0.25,"9.06
"
1528.16-1.96,-0.24,"9.05
"
1527.87-1.87,-0.25,"9.00
"
1527.49-1.82,-0.23,"9.05
"
1527.58-1.84,-0.22,"8.95
"
1527.77-1.92,-0.22,"8.95
"
1527.58-1.91,-0.27,"8.94
"
1528.16-1.83,-0.23,"8.99
"
1527.87-1.85,-0.18,"9.15
"
1527.77-1.89,-0.22,"8.99
"
1527.97-1.88,-0.20,"9.00
"
1528.35-1.92,-0.16,"9.05
"
1528.44-1.94,-0.18,"9.01
"
1527.68-1.80,-0.20,"9.07
"
1528.16-1.87,-0.24,"9.02
"
1528.35-1.91,-0.19,"8.94
"
1528.06-1.85,-0.20,"8.97
"
1527.77-1.81,-0.22,"8.96
"
1528.25-1.87,-0.19,"8.89
"
1528.16-1.89,-0.19,"8.95
"
1527.97-1.84,-0.22,"9.01
"
1528.54-1.86,-0.24,"8.95
"
1527.97-1.95,-0.21,"9.08
"
1527.58-1.88,-0.25,"8.98
"
1527.58-1.92,-0.22,"9.01
"
1527.97-1.90,-0.21,"8.97
"
1527.39-1.85,-0.17,"9.09
"
1527.30-1.95,-0.21,"9.09
"
1527.39-1.88,-0.25,"9.05
"
1527.87-1.90,-0.21,"8.97
"
1527.87-1.84,-0.24,"8.99
"
1527.49-1.91,-0.23,"9.03
"
1527.39-1.89,-0.20,"9.03
"
1528.35-1.88,-0.24,"9.01
"
1527.77-1.94,-0.25,"9.03
"
1527.20-1.81,-0.23,"9.10
"
1527.49-1.85,-0.28,"8.95
"
1528.44-1.91,-0.20,"9.07
"
1528.16-1.87,-0.24,"9.04
"
1527.77-1.91,-0.17,"9.03
"
1527.68-1.79,-0.21,"9.16
"
1527.39-1.93,-0.17,"9.05
"
1527.77-1.87,-0.24,"9.00
"
1527.58-1.81,-0.24,"9.06
"
1528.16-1.94,-0.18,"9.05
"
1527.77-1.86,-0.25,"9.05
"
1527.77-1.94,-0.22,"9.11
"
1527.68-1.84,-0.25,"9.04
"
1527.77-1.85,-0.21,"9.05
"
1527.68-1.89,-0.19,"9.00
"
1527.49-1.98,-0.22,"9.03
"
1527.68-1.86,-0.25,"9.00
"
1527.39-1.82,-0.22,"9.00
"
1527.68-1.84,-0.28,"8.97
"
1527.87-1.85,-0.24,"8.99
"
1527.58-1.86,-0.22,"9.05
"
1527.77-1.87,-0.21,"8.97
"
1527.87-1.86,-0.27,"8.96
"
1528.06-1.87,-0.21,"9.05
"
1527.77-1.92,-0.23,"9.00
"
1527.58-1.88,-0.19,"9.02
"
1527.97-1.88,-0.27,"8.96
"
1527.77-1.81,-0.21,"9.05
"
1527.39-1.87,-0.17,"9.08
"
1527.49-1.86,-0.23,"9.04
"
1527.11-1.86,-0.20,"9.01
"
1527.39-1.84,-0.23,"9.06
"
1527.39-1.87,-0.23,"9.06
"
1527.58-1.86,-0.27,"9.03
"
1527.01-1.93,-0.26,"9.06
"
1527.77-1.91,-0.22,"9.01
"
1527.39-1.88,-0.23,"9.06
"
1527.39-1.85,-0.24,"9.06
"
1526.91-1.88,-0.23,"9.06
"
1527.49-1.84,-0.25,"9.00
"
1527.77-1.88,-0.22,"9.06
"
1527.30-1.82,-0.25,"9.05
"
1527.87-1.91,-0.16,"9.03
"
1527.01-1.87,-0.26,"8.96
"
1527.39-1.88,-0.20,"8.95
"
1527.49-1.87,-0.22,"8.96
"
1527.68-1.88,-0.24,"8.91
"
1527.39-1.88,-0.23,"9.01
"
1527.01-1.86,-0.19,"9.06
"
1527.39-1.88,-0.18,"9.17
"
1527.49-1.90,-0.22,"9.05
"
1527.58-1.81,-0.26,"9.04
"
1527.58-1.97,-0.20,"9.03
"
1527.39-1.94,-0.25,"8.96
"
1527.39-1.87,-0.24,"8.98
"
1527.49-1.86,-0.19,"9.07
"
1527.11-1.83,-0.17,"8.94
"
1527.39-1.80,-0.21,"9.06
"
1527.39-1.94,-0.17,"9.11
"
1527.49-1.92,-0.20,"9.01
"
1527.68-1.89,-0.24,"8.94
"
1527.30-1.90,-0.21,"9.00
"
1527.20-1.88,-0.21,"8.98
"
1527.11-1.91,-0.24,"8.97
"
1527.39-1.91,-0.16,"9.03
"
1527.30-1.87,-0.23,"9.01
"
1527.20-1.93,-0.22,"8.96
"
1527.20-1.87,-0.15,"9.01
"
1527.49-1.85,-0.28,"8.99
"
1527.77-1.85,-0.17,"9.07
"
1526.82-1.86,-0.21,"9.06
"
1527.39-1.91,-0.24,"9.08
"
1527.30-1.95,-0.18,"9.01
"
1526.82-1.86,-0.17,"9.08
"
1526.53-1.86,-0.19,"9.04
"
1526.91-1.77,-0.14,"9.04
"
1527.01-1.92,-0.29,"9.07
"
1527.01-1.97,-0.26,"9.07
"
1527.39-1.92,-0.22,"9.04
"
1527.20-1.98,-0.26,"9.07
"
1527.49-1.91,-0.21,"8.96
"
1527.49-1.81,-0.18,"9.03
"
1526.91-1.69,-0.15,"9.02
"
1527.11-1.84,-0.22,"9.06
"
1526.91-1.98,-0.23,"8.98
"
1527.58-1.98,-0.24,"8.97
"
1526.63-1.87,-0.17,"9.01
"
1527.39-1.86,-0.21,"9.05
"
1527.20-1.87,-0.23,"9.11
"
1527.30-1.96,-0.25,"9.03
"
1527.68-1.92,-0.24,"8.99
"
1527.20-1.83,-0.16,"8.91
"
1527.11-1.84,-0.16,"9.01
"
1526.63-1.81,-0.21,"9.08
"
1527.11-1.97,-0.20,"9.00
"
1527.39-1.88,-0.23,"9.01
"
1527.20-1.88,-0.19,"9.05
"
1527.87-1.85,-0.17,"9.05
"
1527.77-1.85,-0.20,"9.04
"
1526.34-1.91,-0.23,"9.02
"
1526.91-1.93,-0.22,"8.97
"
1527.68-1.92,-0.24,"8.98
"
1527.49-1.83,-0.19,"9.05
"
1527.30-1.84,-0.18,"9.03
"
1527.49-1.86,-0.24,"9.01
"
1527.39-1.90,-0.19,"9.05
"
1527.01-1.84,-0.25,"9.06
"
1526.53-1.88,-0.17,"9.07
"
1527.20-1.84,-0.23,"9.01
"
1527.11-1.79,-0.22,"9.05
"
1527.39-1.86,-0.17,"9.06
"
1527.58-1.94,-0.26,"9.02
"
1526.44-1.88,-0.27,"9.00
"
1526.91-1.85,-0.19,"9.07
"
1526.53-1.84,-0.25,"8.95
"
1527.20-1.85,-0.14,"9.00
"
1527.68-1.94,-0.20,"8.97
"
1527.30-1.97,-0.21,"8.99
"
1527.30-1.93,-0.25,"9.00
"
1527.49-1.84,-0.18,"9.12
"
1526.82-1.81,-0.24,"9.08
"
1527.39-1.80,-0.19,"9.06
"
1527.39-1.90,-0.23,"8.96
"
1527.20-1.87,-0.25,"9.07
"
1527.68-1.93,-0.23,"8.97
"
1527.01-1.85,-0.28,"8.96
"
1527.11-1.90,-0.23,"9.00
"
1527.30-1.86,-0.20,"9.05
"
1526.91-1.90,-0.24,"8.98
"
1527.39-1.98,-0.21,"8.96
"
1527.30-1.92,-0.25,"9.04
"
1526.91-1.88,-0.21,"9.11
"
1527.20-1.79,-0.19,"8.97
"
1527.30-1.86,-0.23,"9.00
"
1527.39-1.91,-0.23,"9.00
"
1526.63-1.89,-0.24,"8.90
"
1526.72-1.91,-0.22,"9.10
"
1526.53-1.87,-0.20,"9.05
"
1526.82-1.88,-0.24,"8.99
"
1526.82-1.91,-0.20,"9.01
"
1527.11-1.82,-0.29,"9.15
"
1526.63-1.89,-0.22,"9.03
"
1526.82-1.92,-0.21,"9.07
"
1526.82-1.92,-0.28,"8.98
"
1527.11-1.80,-0.25,"9.01
"
1527.49-1.82,-0.17,"9.08
"
1527.49-1.89,-0.23,"9.00
"
1527.11-1.91,-0.25,"8.90
"
1527.30-1.83,-0.22,"9.02
"
1527.20-1.85,-0.19,"9.01
"
1527.11-1.94,-0.24,"9.07
"
1527.20-1.93,-0.29,"8.96
"
1526.91-1.83,-0.22,"9.08
"
1527.30-1.95,-0.20,"8.96
"
1527.68-1.95,-0.18,"8.98
"
1527.11-1.92,-0.28,"9.06
"
Altitude,ax,ay,az
Altitude,ax,ay,az
1527.87,-1.91,-0.28,8.95
1527.20,-1.90,-0.19,8.99
1527.20,-1.84,-0.18,9.11
1527.58,-1.87,-0.24,9.05
1527.30,-1.86,-0.20,9.08
1527.39,-1.84,-0.24,9.04
1527.01,-1.91,-0.20,9.06
1527.20,-1.89,-0.17,9.09
1527.20,-1.89,-0.22,9.06
1527.11,-1.90,-0.30,9.10
1527.01,-1.89,-0.17,9.01
1527.49,-1.91,-0.24,9.05
1527.20,-1.86,-0.20,9.00
1527.49,-1.83,-0.25,8.98
1527.30,-1.90,-0.20,9.02
1527.11,-1.86,-0.27,9.11
1527.20,-1.91,-0.24,8.94
1527.30,-1.82,-0.26,9.06
1526.91,-1.88,-0.20,9.12
1527.20,-1.84,-0.22,9.11
1527.68,-1.82,-0.25,9.01
1527.20,-1.88,-0.22,8.95
1527.20,-1.85,-0.19,9.12
1527.39,-1.86,-0.20,8.96
1527.30,-1.84,-0.21,8.95
1527.20,-1.91,-0.18,9.09
1527.58,-1.84,-0.22,9.00
1527.01,-1.85,-0.20,9.06
1526.91,-1.85,-0.25,9.03
1526.82,-1.88,-0.21,9.06
1526.82,-1.83,-0.19,9.04
1526.44,-1.89,-0.20,9.09
1527.01,-1.86,-0.19,8.97
1526.24,-1.86,-0.20,8.99
1527.01,-1.85,-0.21,9.04
1526.82,-1.91,-0.23,8.88
1526.63,-1.87,-0.18,9.00
1526.91,-1.87,-0.23,9.06
1526.82,-1.85,-0.21,9.09
1526.72,-1.88,-0.23,9.08
1527.30,-1.89,-0.23,9.00
1526.72,-1.91,-0.18,9.02
1526.82,-1.89,-0.18,9.02
1526.53,-1.85,-0.20,8.92
1527.11,-1.83,-0.24,8.99
1526.82,-1.80,-0.23,9.02
1527.39,-1.91,-0.18,9.03
1527.49,-1.85,-0.18,8.95
1526.63,-1.85,-0.19,9.03
1527.01,-1.88,-0.24,9.07
1527.01,-1.87,-0.21,9.07
1527.20,-1.92,-0.17,8.94
1527.39,-1.83,-0.24,9.02
1527.20,-1.81,-0.24,9.06
1526.82,-1.90,-0.24,9.02
1526.44,-1.88,-0.26,9.05
1526.24,-1.87,-0.20,9.11
1526.15,-1.87,-0.22,9.07
1527.58,-1.87,-0.26,9.00
1527.20,-1.89,-0.25,9.01
1526.72,-1.85,-0.19,9.09
1526.91,-1.85,-0.23,9.00
1526.72,-1.88,-0.20,9.08
1526.15,-1.82,-0.24,8.99
1527.01,-1.87,-0.21,9.05
1527.01,-1.88,-0.23,9.02
1526.82,-1.82,-0.27,8.94
1527.20,-1.89,-0.25,9.08
1527.49,-1.88,-0.21,9.04
1527.01,-1.85,-0.23,9.14
1527.39,-1.88,-0.24,9.05
1527.49,-1.96,-0.27,8.93
1527.87,-1.88,-0.20,8.99
1527.49,-1.88,-0.21,9.01
1527.11,-1.87,-0.28,9.00
1527.11,-1.86,-0.20,9.07
1527.30,-1.92,-0.23,9.00
1527.01,-1.92,-0.21,9.05
1527.39,-1.91,-0.24,9.05
1527.30,-1.90,-0.17,9.07
1527.68,-1.88,-0.21,9.09
1527.01,-1.86,-0.19,9.07
1526.82,-1.96,-0.25,8.94
1527.30,-1.80,-0.21,9.13
1527.20,-1.83,-0.23,8.96
1527.11,-1.86,-0.25,9.07
1527.11,-1.88,-0.19,8.95
1527.01,-1.90,-0.23,8.97
1527.49,-1.85,-0.22,9.07
1527.20,-1.90,-0.25,9.04
1527.68,-1.91,-0.24,9.06
1527.49,-1.85,-0.19,9.02
1527.39,-1.88,-0.24,8.96
1527.39,-1.85,-0.25,9.04
1527.77,-1.90,-0.22,9.03
1527.11,-1.87,-0.17,8.94
1527.49,-1.88,-0.19,8.98
1527.11,-1.89,-0.25,9.01
1527.49,-1.84,-0.22,8.92
1527.87,-1.96,-0.23,9.10
1527.30,-1.93,-0.21,9.04
1527.11,-1.86,-0.23,9.00
1527.30,-1.83,-0.25,8.99
1527.68,-1.85,-0.22,9.00
1527.20,-1.90,-0.21,8.93
1527.11,-1.88,-0.20,9.05
1527.39,-1.90,-0.16,9.00
1527.87,-1.82,-0.20,9.06
1527.39,-1.86,-0.20,9.02
1527.49,-1.84,-0.21,9.05
1527.49,-1.89,-0.26,9.02
1527.77,-1.87,-0.27,9.01
1527.30,-1.97,-0.26,9.02
1527.77,-1.90,-0.21,9.00
1527.87,-1.83,-0.23,9.00
1527.49,-1.91,-0.26,8.99
1527.11,-1.78,-0.25,8.97
1527.77,-1.92,-0.24,9.00
1527.39,-1.93,-0.22,9.08
1527.97,-1.88,-0.28,9.02
1527.97,-1.91,-0.24,9.13
1527.39,-1.87,-0.18,8.99
1527.97,-1.89,-0.24,8.98
1527.77,-1.93,-0.29,8.99
1527.68,-1.87,-0.20,9.07
1527.30,-1.92,-0.23,8.99
1527.77,-1.83,-0.21,9.01
1527.68,-1.89,-0.31,9.07
1528.06,-1.89,-0.25,9.07
1527.11,-1.90,-0.20,9.09
1527.30,-1.87,-0.19,9.03
1526.63,-1.94,-0.19,9.05
1527.01,-1.90,-0.20,9.02
1527.49,-1.90,-0.25,9.03
1527.30,-1.81,-0.29,9.13
1527.39,-1.85,-0.26,8.96
1527.87,-1.89,-0.22,9.09
1528.25,-1.89,-0.22,9.05
1527.77,-1.85,-0.21,8.92
1527.30,-1.88,-0.23,9.10
1527.11,-1.88,-0.20,9.00
1527.77,-1.89,-0.17,9.06
1527.68,-1.86,-0.22,9.03
1527.30,-1.89,-0.25,8.97
1527.77,-1.85,-0.21,9.07
1527.39,-1.92,-0.27,9.07
1527.39,-1.83,-0.21,9.02
1526.63,-1.87,-0.18,9.04
1526.72,-1.87,-0.23,9.02
1527.30,-1.92,-0.20,9.04
1527.58,-1.92,-0.23,8.95
1527.58,-1.92,-0.25,9.00
1527.39,-1.90,-0.18,8.99
1527.58,-1.92,-0.22,9.00
1527.77,-1.86,-0.20,9.06
1527.20,-1.87,-0.17,8.98
1527.01,-1.86,-0.22,9.02
1527.68,-1.86,-0.20,8.99
1527.11,-1.91,-0.24,9.00
1527.49,-1.88,-0.20,8.95
1527.97,-1.90,-0.23,8.96
1527.01,-1.85,-0.17,8.96
1527.11,-1.89,-0.19,9.00
1527.97,-1.99,-0.23,8.94
1527.97,-2.01,-0.26,9.00
1528.44,-1.70,-0.13,9.02
1527.77,-1.78,-0.23,9.06
1528.06,-1.85,-0.23,9.08
1527.20,-1.92,-0.24,9.08
1527.87,-2.02,-0.27,8.99
1527.68,-1.97,-0.24,8.99
1527.77,-1.82,-0.21,9.00
1527.68,-1.78,-0.16,9.08
1527.68,-1.88,-0.19,9.00
1527.49,-1.83,-0.18,8.98
1528.06,-1.87,-0.26,8.91
1527.97,-1.90,-0.20,9.03
1527.97,-1.87,-0.25,9.09
1528.25,-1.77,-0.23,8.97
1527.87,-1.86,-0.22,9.06
1528.16,-1.90,-0.26,9.03
1527.97,-1.91,-0.19,9.03
1527.87,-1.84,-0.21,9.03
1527.87,-1.86,-0.17,9.09
1527.39,-1.87,-0.26,9.00
1527.77,-1.89,-0.23,8.98
1527.68,-1.86,-0.27,9.01
1527.97,-1.87,-0.23,9.08
1527.58,-1.90,-0.19,9.11
1527.58,-1.93,-0.22,9.00
1527.97,-1.92,-0.22,9.11
1527.97,-1.86,-0.19,9.00
1527.68,-1.80,-0.20,9.02
1527.20,-1.91,-0.26,9.05
1527.68,-1.87,-0.20,9.05
1527.49,-1.91,-0.21,8.95
1527.30,-1.92,-0.22,9.01
1527.97,-1.87,-0.21,9.09
1527.68,-1.87,-0.19,9.04
1527.58,-1.88,-0.26,8.96
1527.58,-1.94,-0.18,8.99
1527.58,-1.89,-0.22,8.93
1527.39,-1.88,-0.27,9.11
1527.77,-1.88,-0.23,9.06
1527.68,-1.92,-0.28,9.05
1527.77,-1.93,-0.16,8.94
1527.49,-1.88,-0.23,9.02
1527.77,-1.90,-0.23,8.98
1527.97,-1.83,-0.26,9.10
1527.49,-1.84,-0.21,9.07
1527.30,-1.86,-0.23,8.98
1527.68,-1.94,-0.27,9.03
1527.58,-1.87,-0.25,8.98
1527.87,-1.89,-0.18,9.10
1527.58,-1.85,-0.22,8.99
1527.58,-1.88,-0.19,9.00
1527.68,-1.86,-0.22,9.02
1527.97,-1.85,-0.25,8.98
1528.25,-1.87,-0.22,8.96
1527.68,-1.88,-0.24,9.06
1527.97,-1.87,-0.24,8.96
1527.97,-1.89,-0.22,9.04
1527.68,-1.85,-0.25,9.05
1527.68,-1.92,-0.23,8.97
1527.77,-1.89,-0.23,8.98
1528.06,-1.89,-0.18,9.05
1527.87,-1.92,-0.23,9.05
1527.58,-1.87,-0.21,8.96
1527.58,-1.93,-0.23,9.02
1527.20,-1.86,-0.19,8.97
1527.30,-1.89,-0.15,8.99
1527.77,-1.82,-0.17,8.92
1527.87,-1.82,-0.22,9.09
1527.87,-1.94,-0.17,9.09
1527.97,-1.92,-0.22,8.97
1527.77,-1.90,-0.23,9.06
1527.97,-1.90,-0.27,8.94
1527.77,-1.84,-0.19,9.12
1527.49,-1.86,-0.23,9.07
1528.06,-1.88,-0.22,9.01
1528.06,-1.89,-0.23,8.99
1528.44,-1.90,-0.18,9.06
1527.87,-1.98,-0.23,9.00
1528.06,-1.89,-0.18,9.05
1527.30,-1.95,-0.18,9.08
1527.20,-1.87,-0.21,9.00
1527.30,-1.95,-0.20,8.97
1527.30,-1.86,-0.24,9.01
1527.58,-1.88,-0.20,9.06
1527.87,-1.92,-0.14,9.06
1527.58,-1.87,-0.25,9.05
1527.77,-1.85,-0.24,8.99
1527.58,-1.92,-0.24,9.00
1527.58,-1.88,-0.20,8.98
1527.68,-1.79,-0.17,8.95
1527.77,-1.87,-0.21,9.05
1528.06,-1.84,-0.21,9.12
1528.35,-1.84,-0.22,8.97
1527.68,-1.96,-0.23,9.03
1527.68,-1.94,-0.19,9.03
1528.06,-1.89,-0.26,9.03
1528.44,-1.86,-0.18,9.01
1528.06,-1.87,-0.27,9.08
1527.87,-1.91,-0.22,9.05
1527.77,-1.95,-0.21,9.02
1527.97,-1.96,-0.23,9.01
1527.39,-1.84,-0.19,9.09
1527.39,-1.84,-0.20,9.17
1528.06,-1.85,-0.19,9.05
1527.97,-1.95,-0.20,9.04
1527.77,-1.92,-0.27,9.11
1527.77,-1.86,-0.22,9.09
1527.39,-1.84,-0.22,8.95
1527.87,-1.87,-0.24,8.98
1527.68,-1.85,-0.23,8.99
1527.68,-1.92,-0.20,9.10
1527.58,-1.80,-0.26,8.99
1527.49,-1.87,-0.15,8.92
1527.87,-1.89,-0.17,9.09
1528.06,-1.91,-0.26,9.07
1528.25,-1.84,-0.25,9.12
1527.97,-1.86,-0.20,9.07
1528.35,-1.91,-0.25,9.05
1527.87,-1.87,-0.16,9.00
1527.97,-1.87,-0.27,9.04
1527.58,-1.91,-0.22,9.04
1528.06,-1.81,-0.25,9.01
1527.87,-1.86,-0.21,8.98
1527.87,-1.78,-0.19,9.04
1527.77,-1.90,-0.24,9.00
1527.77,-1.94,-0.23,9.08
Altitude,ax,ay,az
Altitude,ax,ay,az
Altitude,ax,ay,az
1533.32,-1.89,-0.19,9.01
1533.99,-1.86,-0.16,9.04
1533.99,-1.9,-0.21,9.01
1533.71,-1.89,-0.2,9.07
1533.8,-1.91,-0.22,9.04
1533.52,-1.87,-0.18,9.03
1533.52,-1.87,-0.2,8.97
1533.8,-1.87,-0.19,8.97
1533.52,-1.91,-0.23,9.07
1533.9,-1.87,-0.2,8.99
1533.71,-1.89,-0.19,8.97
1533.32,-1.88,-0.16,8.89
1533.8,-1.94,-0.21,8.98
1533.71,-1.88,-0.23,8.91
1533.9,-1.85,-0.22,8.97
1533.52,-1.91,-0.2,9.0
1533.61,-1.89,-0.26,9.05
1533.8,-1.89,-0.22,9.05
1533.52,-1.85,-0.21,9.02
1534.19,-1.87,-0.21,9.09
1533.52,-1.92,-0.19,8.98
1533.9,-1.85,-0.21,8.98
1533.52,-1.9,-0.18,9.04
1532.85,-1.88,-0.21,9.01
1533.8,-1.89,-0.19,9.06
1533.9,-1.85,-0.18,9.01
1533.61,-1.83,-0.18,9.04
1532.85,-1.91,-0.23,8.94
1533.61,-1.9,-0.22,8.99
1533.61,-1.82,-0.24,9.06
1533.52,-1.85,-0.17,9.03
1533.23,-1.85,-0.2,9.02
1532.94,-1.83,-0.17,8.96
1533.71,-1.9,-0.23,8.99
1533.71,-1.83,-0.23,9.09
1533.8,-1.9,-0.24,9.04
1534.09,-1.88,-0.15,9.01
1533.61,-1.84,-0.2,9.05
1533.99,-1.86,-0.17,8.96
1533.32,-1.94,-0.18,9.0
1533.52,-1.91,-0.18,8.94
1533.9,-1.85,-0.22,9.03
1533.71,-1.86,-0.18,8.96
1533.61,-1.87,-0.22,9.09
1533.32,-1.89,-0.21,8.99
1533.32,-1.86,-0.23,9.02
1532.65,-1.87,-0.22,8.92
1533.8,-1.91,-0.23,9.1
1533.9,-1.83,-0.2,9.01
1533.32,-1.9,-0.18,9.02
1532.94,-1.88,-0.24,9.1
1533.23,-1.89,-0.23,9.03
1533.42,-1.87,-0.2,8.92
1533.71,-1.83,-0.14,9.02
1533.61,-1.86,-0.18,9.12
1534.19,-1.84,-0.19,9.05
1533.52,-1.87,-0.19,9.0
1533.32,-1.85,-0.23,8.93
1533.71,-1.87,-0.21,9.05
1533.61,-1.88,-0.21,8.98
1533.32,-1.9,-0.25,9.03
1533.42,-1.88,-0.22,8.98
1533.32,-1.9,-0.26,8.97
1533.61,-1.88,-0.15,9.12
1532.94,-1.9,-0.17,9.09
1533.52,-1.91,-0.2,8.92
1533.52,-1.89,-0.21,9.05
1533.71,-1.99,-0.24,9.02
1533.32,-1.87,-0.21,9.05
1533.23,-1.83,-0.24,9.03
1532.65,-1.94,-0.18,8.99
1533.61,-1.94,-0.21,9.07
1533.9,-1.9,-0.2,9.06
1533.71,-1.89,-0.18,9.12
1533.9,-1.9,-0.24,9.0
1534.09,-1.87,-0.15,9.07
1533.61,-1.83,-0.22,8.96
1534.19,-1.88,-0.21,9.01
1533.71,-1.87,-0.22,8.98
1532.94,-1.97,-0.23,8.94
1533.42,-1.89,-0.25,9.02
1533.52,-1.92,-0.23,9.02
1533.71,-1.87,-0.19,9.0
1533.52,-1.87,-0.2,9.05
1533.9,-1.87,-0.16,8.98
1533.61,-1.86,-0.24,9.05
1533.42,-1.87,-0.25,8.99
1533.32,-1.87,-0.17,9.03
1533.32,-1.89,-0.2,9.03
1534.09,-1.95,-0.18,9.05
1533.71,-1.92,-0.2,8.99
1533.13,-1.81,-0.23,9.03
1533.61,-1.9,-0.21,9.02
1533.32,-1.81,-0.17,9.0
1533.61,-1.85,-0.28,8.95
1533.71,-1.93,-0.19,8.97
1533.52,-1.94,-0.24,9.03
1533.42,-1.82,-0.21,8.94
1533.99,-1.88,-0.2,9.06
1533.71,-1.91,-0.2,9.05
1533.71,-1.85,-0.17,8.99
1533.42,-1.9,-0.22,9.06
1533.71,-1.9,-0.27,9.06
1533.42,-1.86,-0.23,9.04
1533.71,-1.91,-0.18,9.03
1533.42,-1.89,-0.22,8.91
1533.71,-1.89,-0.22,9.05
1533.8,-1.92,-0.21,8.97
1533.32,-1.8,-0.24,9.06
1533.61,-1.88,-0.23,8.97
1533.32,-1.95,-0.23,9.05
1533.61,-1.9,-0.25,8.99
1533.42,-1.88,-0.25,8.97
1533.13,-1.91,-0.23,8.96
1533.13,-1.86,-0.23,9.06
1533.42,-1.91,-0.18,9.04
1533.13,-1.88,-0.18,9.06
1533.52,-1.93,-0.23,8.97
1533.32,-1.92,-0.11,8.98
1533.61,-1.88,-0.21,9.04
1533.52,-1.91,-0.18,9.06
1533.32,-1.91,-0.19,9.03
1533.71,-1.92,-0.21,8.98
1533.8,-1.92,-0.2,8.97
1533.42,-1.93,-0.21,9.0
1533.8,-1.82,-0.2,8.97
1533.9,-1.93,-0.22,9.04
1533.42,-1.93,-0.17,9.04
1533.61,-1.88,-0.19,8.98
1533.32,-1.89,-0.23,8.98
1533.04,-1.86,-0.22,9.0
1532.56,-1.85,-0.22,8.98
1533.04,-1.9,-0.2,8.97
1533.32,-1.89,-0.26,9.04
1533.13,-1.91,-0.22,9.03
1533.42,-1.91,-0.24,9.08
1533.13,-1.9,-0.19,9.1
1532.94,-1.82,-0.25,9.11
1533.32,-1.89,-0.18,8.97
1533.99,-1.87,-0.23,9.03
1533.32,-1.86,-0.16,9.1
1533.9,-1.95,-0.23,9.0
1533.8,-1.83,-0.2,9.01
1533.8,-1.81,-0.18,9.08
1533.23,-1.83,-0.24,9.02
1533.32,-1.9,-0.18,9.1
1533.52,-1.92,-0.17,9.05
1534.09,-1.89,-0.22,9.05
1533.42,-1.86,-0.19,9.02
1533.32,-1.92,-0.21,8.97
1533.99,-1.96,-0.2,9.04
1533.52,-1.89,-0.18,9.0
1533.52,-1.87,-0.25,9.0
1533.32,-1.91,-0.19,9.05
1533.23,-1.89,-0.21,9.09
1532.75,-1.87,-0.17,8.88
1533.04,-1.92,-0.21,9.09
1533.23,-1.88,-0.25,9.1
1533.71,-1.86,-0.22,9.03
1533.13,-1.91,-0.23,9.02
1533.13,-1.89,-0.29,9.02
1533.13,-1.89,-0.23,9.0
1533.8,-1.82,-0.19,9.05
1533.32,-1.89,-0.22,9.07
1533.8,-1.91,-0.2,8.98
1532.94,-1.87,-0.18,9.11
1533.9,-1.92,-0.26,8.98
1533.61,-1.92,-0.21,9.04
1533.13,-1.89,-0.18,9.03
1532.85,-1.89,-0.2,9.02
1534.19,-1.86,-0.17,9.16
1533.42,-1.9,-0.26,9.07
1533.42,-1.88,-0.24,8.99
1533.71,-1.91,-0.23,8.98
1533.61,-1.87,-0.25,9.0
1534.47,-1.81,-0.19,9.02
1533.61,-1.93,-0.18,8.98
1533.9,-1.91,-0.22,9.0
1533.42,-1.87,-0.22,9.06
1533.9,-1.85,-0.16,9.08
1533.52,-1.88,-0.19,9.02
1533.23,-1.91,-0.24,9.03
1533.61,-1.92,-0.22,8.98
1533.42,-1.93,-0.2,9.03
1533.42,-1.81,-0.27,9.07
1533.23,-1.93,-0.28,8.88
1533.04,-1.87,-0.14,8.96
1533.32,-1.92,-0.21,9.06
1533.9,-1.96,-0.18,9.03
1533.8,-1.86,-0.22,9.01
1533.42,-1.9,-0.19,8.98
Altitude,ax,ay,az
1533.61,-1.89,-0.22,9.0
1533.04,-1.87,-0.17,9.05
1533.71,-1.9,-0.22,9.07
1533.23,-1.89,-0.24,8.99
1533.13,-1.93,-0.13,9.06
1533.9,-1.9,-0.23,8.99
1533.71,-1.92,-0.21,8.98
1533.9,-1.84,-0.22,9.06
1533.71,-1.86,-0.18,9.02
1533.71,-1.9,-0.18,9.02
1533.23,-1.92,-0.22,9.09
1534.38,-1.9,-0.14,9.02
1533.71,-1.95,-0.27,9.06
1533.13,-1.89,-0.21,8.98
1533.42,-1.9,-0.19,9.04
1533.8,-1.94,-0.18,9.0
1533.04,-1.86,-0.22,8.97
1533.71,-1.94,-0.18,8.93
1533.23,-1.89,-0.26,9.02
1533.13,-1.88,-0.21,9.04
1533.42,-1.94,-0.23,9.01
1532.85,-1.89,-0.21,9.0
1532.65,-1.9,-0.26,8.95
1533.04,-1.93,-0.22,8.93
1532.75,-1.88,-0.18,9.08
1533.52,-1.88,-0.23,8.94
1533.8,-1.95,-0.22,8.98
1533.99,-1.86,-0.16,9.06
1533.9,-1.89,-0.22,8.99
1533.9,-1.89,-0.22,9.03
1533.42,-1.91,-0.22,9.05
1533.61,-1.91,-0.24,8.97
1533.61,-1.92,-0.2,8.95
1533.71,-1.91,-0.21,8.9
1533.04,-1.84,-0.19,9.07
1533.52,-1.9,-0.25,9.05
1533.61,-1.92,-0.21,9.07
1533.61,-1.97,-0.22,8.98
1533.61,-1.87,-0.14,9.0
1533.61,-1.78,-0.17,8.98
1533.32,-1.95,-0.15,9.1
1533.42,-1.88,-0.23,9.01
1533.8,-1.87,-0.22,9.05
1534.19,-1.9,-0.2,8.99
1533.61,-1.85,-0.22,9.01
1533.32,-1.87,-0.18,8.94
1533.52,-1.88,-0.2,9.08
1533.99,-1.9,-0.23,9.07
1533.52,-1.88,-0.17,9.07
1533.71,-1.89,-0.15,9.0
1533.52,-1.91,-0.21,8.93
1533.32,-1.93,-0.17,9.06
1533.13,-1.99,-0.19,9.0
1533.8,-1.91,-0.21,8.97
1532.94,-1.89,-0.23,9.04
1533.42,-1.92,-0.23,9.04
1533.04,-1.91,-0.22,8.93
1533.04,-1.89,-0.21,9.07
1533.23,-1.84,-0.23,8.98
1533.52,-1.89,-0.2,9.07
1533.61,-1.87,-0.17,9.07
1533.61,-1.88,-0.15,9.05
1533.9,-1.88,-0.17,9.05
1533.9,-1.89,-0.22,9.07
1534.28,-1.88,-0.21,8.98
1533.23,-1.89,-0.26,9.04
1533.32,-1.9,-0.17,8.95
1533.42,-1.87,-0.23,9.06
1533.42,-1.89,-0.28,9.03
1533.8,-1.87,-0.21,9.09
1533.61,-1.84,-0.22,9.05
1533.61,-1.86,-0.2,8.93
1533.52,-1.89,-0.21,9.03
1533.04,-1.87,-0.25,9.03
1532.75,-1.87,-0.22,8.98
1533.8,-1.93,-0.23,9.04
1533.8,-1.92,-0.22,9.04
1533.52,-1.92,-0.17,9.05
1533.42,-1.9,-0.19,9.05
1533.8,-2.02,-0.19,8.98
1533.32,-1.87,-0.17,9.09
1533.13,-1.9,-0.27,9.07
1532.85,-1.91,-0.22,9.06
1533.23,-1.87,-0.18,9.06
1533.32,-1.91,-0.13,9.02
1533.61,-1.88,-0.16,9.0
1533.23,-1.93,-0.16,9.04
1533.32,-1.92,-0.19,8.91
1533.42,-1.88,-0.21,9.0
1533.23,-1.9,-0.23,9.04
1532.56,-1.87,-0.25,9.03
1532.85,-1.88,-0.17,8.93
1532.94,-1.93,-0.2,9.01
1533.52,-1.92,-0.24,9.1
1533.52,-1.89,-0.2,8.98
1533.9,-1.96,-0.18,9.05
1533.32,-1.89,-0.25,8.98
1533.61,-1.91,-0.22,9.05
1533.61,-1.9,-0.27,8.99
1533.42,-1.92,-0.21,9.0
1533.42,-1.87,-0.23,9.08
1533.52,-1.88,-0.22,8.93
1533.61,-1.92,-0.16,8.99
1533.13,-1.94,-0.15,9.05
1533.04,-1.97,-0.21,8.95
1533.52,-1.9,-0.2,9.03
1533.04,-1.96,-0.24,8.94
1533.61,-1.9,-0.23,9.01
1533.42,-1.89,-0.2,9.04
1533.32,-1.9,-0.22,9.09
1532.65,-1.88,-0.29,9.09
1532.65,-1.87,-0.17,9.05
1533.32,-1.82,-0.19,9.04
1533.52,-1.9,-0.21,9.0
1533.71,-1.96,-0.18,9.04
1533.23,-1.89,-0.22,8.95
1533.9,-1.9,-0.25,8.95
1533.42,-1.87,-0.21,9.03
1533.42,-1.89,-0.23,9.02
1533.52,-1.91,-0.27,8.99
1532.65,-1.91,-0.22,8.97
1533.71,-1.88,-0.17,9.04
1533.71,-1.92,-0.2,9.11
1533.71,-1.92,-0.17,9.09
1533.61,-1.92,-0.18,9.02
1533.61,-1.94,-0.2,9.04
1533.71,-1.89,-0.19,9.02
1533.61,-1.88,-0.2,8.98
1533.04,-1.93,-0.17,8.99
1533.8,-1.86,-0.2,9.02
1533.71,-1.9,-0.22,8.98
1533.8,-1.88,-0.23,8.95
1533.9,-1.91,-0.27,9.06
1533.9,-1.96,-0.16,9.01
1533.42,-1.89,-0.17,9.0
1532.94,-1.88,-0.21,9.03
1533.23,-1.9,-0.23,9.02
1533.23,-1.99,-0.23,9.04
1533.61,-1.87,-0.16,9.04
1533.42,-1.92,-0.23,8.97
1533.13,-1.85,-0.19,9.03
1533.99,-1.85,-0.2,9.02
1533.04,-1.88,-0.22,9.01
1533.61,-1.9,-0.25,9.03
1533.71,-1.92,-0.21,9.06
1533.13,-1.84,-0.22,9.04
1533.42,-1.84,-0.21,9.02
1533.52,-1.86,-0.18,9.14
1533.71,-1.92,-0.21,9.01
1533.52,-1.84,-0.21,9.02
1533.42,-1.9,-0.22,9.03
1533.52,-1.92,-0.19,9.07
1533.32,-1.91,-0.18,9.07
1533.52,-1.89,-0.25,8.89
1532.94,-1.91,-0.19,8.93
1533.42,-1.92,-0.2,9.0
1533.42,-1.84,-0.25,9.01
1533.32,-1.9,-0.18,9.05
1533.8,-1.91,-0.25,9.05
1533.23,-1.91,-0.18,9.03
1533.61,-1.88,-0.16,9.06
1533.04,-1.91,-0.21,9.01
1533.52,-1.9,-0.21,8.96
1532.75,-1.97,-0.24,9.13
1533.23,-1.87,-0.27,9.04
1533.61,-1.88,-0.17,9.04
1533.42,-1.96,-0.16,9.03
1533.52,-1.85,-0.12,9.06
1533.61,-1.9,-0.16,9.01
1533.42,-1.88,-0.17,9.0
1533.42,-1.92,-0.23,9.07
1533.32,-1.88,-0.17,9.04
1533.13,-1.93,-0.22,9.06
1533.13,-1.88,-0.26,9.03
1533.52,-1.89,-0.17,9.01
1533.52,-1.93,-0.15,9.02
1533.52,-1.87,-0.13,9.0
1533.61,-1.87,-0.17,9.03
1533.8,-1.93,-0.25,8.94
1533.61,-1.87,-0.21,9.11
1533.9,-1.88,-0.16,9.01
1533.9,-1.86,-0.2,9.0
1532.94,-1.88,-0.25,9.04
1533.71,-1.88,-0.21,8.99
1533.42,-1.91,-0.22,9.1
1533.8,-1.91,-0.21,9.0
1533.61,-1.86,-0.13,8.97
1533.71,-1.88,-0.27,9.01
1533.8,-1.85,-0.2,9.12
1533.52,-1.88,-0.22,9.02
1533.71,-1.85,-0.17,9.14
1533.9,-1.92,-0.23,9.01
1533.61,-1.88,-0.21,9.05
1533.61,-1.87,-0.14,8.96
1534.19,-1.93,-0.21,9.04
1533.61,-1.9,-0.26,9.03
1533.52,-1.86,-0.24,9.02
1533.99,-1.9,-0.24,9.0
1533.8,-1.86,-0.2,9.04
1533.71,-1.94,-0.24,9.12
1533.52,-1.94,-0.21,8.97
1533.13,-1.88,-0.21,9.01
1533.32,-1.84,-0.24,9.06
1533.42,-1.86,-0.19,9.03
1532.94,-1.92,-0.25,9.09
1533.61,-1.92,-0.19,8.95
1533.32,-1.9,-0.25,9.01
1533.23,-1.89,-0.17,9.01
1533.32,-1.88,-0.22,8.96
1532.65,-1.88,-0.23,9.09
1533.32,-1.93,-0.2,9.02
1533.61,-1.86,-0.25,9.08
1533.61,-1.91,-0.2,9.07
1533.52,-1.92,-0.23,9.05
1533.13,-1.9,-0.18,9.02
1533.32,-1.95,-0.22,9.05
1533.9,-1.92,-0.17,9.08
1533.32,-1.95,-0.21,9.02
1533.8,-1.84,-0.22,9.03
1533.61,-1.85,-0.27,9.04
1533.42,-1.89,-0.23,8.97
1533.42,-1.98,-0.19,9.06
1533.9,-1.9,-0.21,9.0
1534.09,-1.88,-0.17,9.07
1533.52,-1.94,-0.18,8.88
1533.99,-1.92,-0.23,9.03
1533.8,-1.89,-0.17,9.03
1533.52,-1.88,-0.17,8.98
1533.71,-1.89,-0.2,9.01
1533.13,-1.86,-0.18,9.01
1533.42,-1.87,-0.17,9.06
1533.71,-1.9,-0.15,9.1
1533.23,-1.91,-0.21,8.96
1533.71,-1.92,-0.18,9.12
1533.32,-1.92,-0.28,9.08
1533.8,-1.86,-0.19,8.94
1533.42,-1.9,-0.22,9.04
1533.52,-1.92,-0.23,9.03
1533.71,-1.88,-0.19,9.02
1533.8,-1.86,-0.23,8.99
1533.71,-1.89,-0.19,9.0
1533.8,-1.86,-0.23,9.06
1533.71,-1.96,-0.23,9.03
1533.8,-1.92,-0.18,9.03
1533.99,-1.86,-0.18,9.03
1533.61,-1.91,-0.24,8.97
1533.42,-1.9,-0.21,9.07
1534.09,-1.9,-0.21,9.01
1533.99,-1.83,-0.25,9.05
1533.71,-1.89,-0.23,9.04
1533.71,-1.91,-0.21,9.11
1533.61,-1.92,-0.2,8.98
1533.71,-1.9,-0.22,8.99
1533.8,-1.85,-0.19,9.08
1533.52,-1.88,-0.2,9.04
1533.32,-1.85,-0.16,9.02
1533.71,-1.9,-0.19,9.07
1533.99,-1.86,-0.22,8.99
1533.61,-1.92,-0.21,9.03
1533.52,-1.89,-0.19,8.97
1533.99,-1.92,-0.23,9.05
1533.8,-1.9,-0.19,8.99
1533.52,-1.92,-0.24,9.07
1533.42,-1.93,-0.2,8.94
1533.23,-1.92,-0.17,8.98
1533.9,-1.92,-0.23,8.97
1534.09,-1.93,-0.17,9.12
1534.19,-1.88,-0.21,9.11
1534.19,-1.89,-0.21,8.95
1533.9,-1.85,-0.2,9.04
1533.8,-1.91,-0.17,9.02
1533.8,-1.9,-0.24,8.99
1533.8,-1.84,-0.18,9.0
1534.38,-1.9,-0.19,8.98
1533.9,-1.91,-0.25,9.03
1533.9,-1.93,-0.21,8.96
1533.99,-1.92,-0.17,8.95
1533.71,-1.91,-0.15,9.06
1533.99,-1.93,-0.17,9.02
1533.71,-1.81,-0.18,9.05
1532.85,-1.85,-0.21,9.0
1533.8,-1.9,-0.21,9.08
1533.99,-1.89,-0.23,9.08
1533.71,-1.91,-0.24,9.04
1533.8,-1.86,-0.2,8.99
1534.09,-1.87,-0.22,8.99
1533.52,-1.94,-0.19,9.03
1533.8,-1.87,-0.26,8.98
1533.99,-1.96,-0.19,9.09
1533.61,-1.87,-0.22,8.99
1533.23,-1.9,-0.19,8.96
1533.8,-1.91,-0.21,9.09
1533.71,-1.89,-0.16,8.93
1533.32,-1.9,-0.23,9.06
1533.71,-1.9,-0.23,9.03
1533.8,-1.88,-0.2,9.03
1533.99,-1.86,-0.26,8.98
1534.09,-1.96,-0.19,9.02
1533.9,-1.89,-0.2,8.85
1533.8,-1.91,-0.21,8.95
1533.8,-1.87,-0.15,9.01
1533.9,-1.86,-0.2,9.0
1533.52,-1.91,-0.19,9.01
1533.99,-1.89,-0.23,9.08
1533.61,-1.94,-0.19,8.87
1534.19,-1.85,-0.22,9.02
1533.52,-1.85,-0.23,9.07
1533.8,-1.89,-0.18,8.95
1533.52,-1.91,-0.18,8.98
1533.61,-1.83,-0.25,9.02
1533.99,-1.87,-0.2,9.03
1533.42,-1.91,-0.21,9.01
1533.13,-1.85,-0.21,8.92
1533.61,-1.85,-0.16,9.08
1533.23,-1.88,-0.24,8.99
1533.99,-1.85,-0.2,9.05
1533.9,-1.89,-0.19,9.14
1534.19,-1.95,-0.25,8.97
1534.19,-1.89,-0.22,9.05
1533.8,-1.89,-0.16,9.02
1533.52,-1.88,-0.22,9.01
1533.99,-1.9,-0.21,9.03
1533.9,-1.88,-0.21,9.0
1533.99,-1.92,-0.21,9.04
1533.8,-1.86,-0.25,9.09
1533.8,-1.93,-0.26,9.01
1533.42,-1.88,-0.23,9.05
1533.9,-1.85,-0.21,8.97
1533.71,-1.93,-0.21,9.07
1533.8,-1.91,-0.16,9.04
1533.71,-1.93,-0.22,8.92
1533.99,-1.86,-0.3,8.97
1533.61,-1.91,-0.14,9.04
1533.52,-1.9,-0.18,8.97
1533.61,-1.9,-0.23,9.03
1533.23,-1.88,-0.2,9.01
1533.71,-1.97,-0.25,9.04
1533.61,-1.88,-0.2,9.03
1533.61,-1.88,-0.2,9.16
1533.71,-1.87,-0.18,9.05
1533.71,-1.92,-0.25,9.05
1533.71,-1.9,-0.22,9.04
1533.71,-1.84,-0.22,9.04
1533.8,-1.85,-0.23,8.99
1533.52,-1.92,-0.21,8.98
1533.61,-1.91,-0.23,9.0
1533.42,-1.91,-0.19,9.03
1533.71,-1.89,-0.2,9.0
1533.8,-1.91,-0.18,9.02
1533.32,-1.88,-0.24,9.0
1533.42,-1.87,-0.18,8.94
1533.8,-1.87,-0.17,9.06
1533.61,-1.93,-0.18,9.08
1533.32,-1.85,-0.23,8.94
1533.42,-1.89,-0.2,9.09
1533.32,-1.9,-0.2,8.98
1533.9,-1.93,-0.23,9.05
1534.09,-1.85,-0.19,9.02
1533.8,-1.92,-0.24,8.96
1533.99,-1.93,-0.2,9.04
1533.8,-1.83,-0.21,9.05
1533.99,-1.89,-0.18,8.95
1534.57,-1.93,-0.24,9.12
1534.38,-1.91,-0.18,9.01
1533.9,-1.87,-0.22,9.09
1533.61,-1.85,-0.21,9.05
1534.19,-1.89,-0.17,9.02
1533.99,-1.89,-0.18,9.02
1534.38,-1.87,-0.21,9.03
1534.76,-1.9,-0.21,9.07
1534.09,-1.84,-0.19,9.06
1534.09,-1.92,-0.23,8.99
1534.38,-1.85,-0.21,9.06
1534.09,-1.9,-0.15,9.02
1533.52,-1.87,-0.18,9.0
1534.09,-1.85,-0.22,9.04
1533.9,-1.88,-0.19,9.04
1533.71,-1.93,-0.18,8.98
1533.52,-1.92,-0.21,9.08
1533.23,-1.92,-0.22,8.99
1533.9,-1.93,-0.24,8.93
1534.09,-1.88,-0.28,9.05
1533.9,-1.91,-0.2,9.06
1533.52,-1.97,-0.25,9.02
1533.8,-1.9,-0.15,9.02
1534.09,-1.96,-0.15,9.05
1534.28,-1.87,-0.23,9.03
1533.8,-1.84,-0.24,9.01
1534.19,-1.88,-0.22,9.02
1534.09,-1.88,-0.24,9.16
1533.52,-1.88,-0.17,8.99
1533.71,-1.87,-0.18,8.98
1533.99,-1.82,-0.18,9.04
1533.61,-1.83,-0.23,8.98
1533.13,-2.11,-0.27,9.05
1533.71,-1.99,-0.25,9.09
1533.52,-1.79,-0.19,9.05
1533.71,-1.87,-0.2,9.05
1533.61,-1.97,-0.23,9.07
1533.9,-1.98,-0.26,9.05
1533.13,-1.82,-0.12,9.01
1533.42,-1.74,-0.15,9.11
1533.52,-1.93,-0.2,8.99
1533.71,-1.96,-0.21,9.04
1533.71,-1.94,-0.2,9.01
1533.71,-1.83,-0.21,8.98
1533.8,-1.86,-0.13,9.06
1533.42,-1.86,-0.24,9.02
1533.13,-1.95,-0.23,8.99
1533.52,-1.87,-0.21,9.09
1533.61,-1.8,-0.2,9.01
1533.32,-1.81,-0.21,9.04
1532.65,-1.92,-0.21,9.03
1532.94,-1.86,-0.23,8.99
1533.13,-1.92,-0.19,9.01
1533.52,-1.87,-0.24,8.98
1532.65,-1.85,-0.2,9.02
1533.61,-1.81,-0.17,9.04
1533.71,-1.83,-0.19,9.04
1533.13,-1.93,-0.19,9.06
1532.85,-1.93,-0.25,8.94
1533.61,-1.87,-0.22,8.96
1533.32,-1.84,-0.18,9.03
1532.75,-1.77,-0.2,9.05
1533.52,-1.79,-0.15,9.09
1533.23,-2.0,-0.22,9.05
1532.75,-1.94,-0.21,9.01
1533.42,-1.87,-0.21,9.02
1533.71,-1.78,-0.29,9.04
1533.13,-1.84,-0.17,9.02
1533.42,-1.88,-0.21,9.14
1532.65,-1.92,-0.25,8.93
1533.8,-1.87,-0.19,9.09
1533.04,-1.81,-0.19,9.08
1533.52,-1.87,-0.19,9.07
1533.32,-1.92,-0.21,9.22
1533.71,-1.86,-0.16,9.14
1533.52,-1.84,-0.24,9.0
1533.52,-1.7,-0.16,9.1
1533.04,-1.77,-0.18,9.02
1532.65,-1.87,-0.25,9.01
1533.23,-2.15,-0.28,9.05
1533.04,-2.22,-0.34,8.94
1532.85,-2.3,-0.38,8.91
1533.23,-2.09,-0.29,9.09
1532.85,-2.2,-0.38,8.92
1532.65,-1.45,0.21,8.3
1532.85,-1.84,-0.23,8.91
1533.8,-2.13,-0.46,9.08
1533.13,-1.61,-0.02,9.0
1532.56,-2.01,-0.2,9.11
1532.56,-1.77,-0.11,9.02
1532.27,-1.98,-0.27,8.97
1532.27,-1.96,-0.23,8.97
1532.85,-1.8,-0.23,9.01
1533.13,-1.89,-0.19,9.03
1533.8,-1.96,-0.27,9.07
1532.75,-1.9,-0.22,9.08
1532.94,-1.88,-0.2,9.01
1533.42,-1.92,-0.16,9.05
1533.32,-1.84,-0.16,9.0
1533.13,-1.9,-0.17,9.02
1533.61,-1.94,-0.24,8.95
1533.04,-1.9,-0.18,9.0
1533.42,-1.8,-0.22,9.06
1533.13,-1.8,-0.24,8.97
1532.56,-1.97,-0.2,8.98
1533.04,-1.92,-0.24,8.98
1532.65,-1.86,-0.16,9.04
1532.18,-1.82,-0.2,9.01
1532.56,-1.89,-0.22,8.95
1533.32,-1.97,-0.25,9.05
1533.32,-1.92,-0.21,8.93
1533.23,-1.86,-0.22,8.95
1532.94,-1.79,-0.14,9.04
1532.85,-1.9,-0.25,9.0
1532.94,-1.98,-0.21,9.05
1533.13,-1.89,-0.22,9.1
1533.42,-1.83,-0.2,9.01
1533.23,-1.83,-0.18,9.08
1533.42,-1.95,-0.26,9.04
1533.9,-1.93,-0.21,9.16
1533.13,-1.89,-0.23,9.02
1533.23,-1.84,-0.19,9.04
1533.32,-1.87,-0.21,9.11
1533.04,-1.94,-0.23,9.0
1532.65,-1.88,-0.2,9.02
1533.04,-1.85,-0.19,9.02
1532.46,-1.89,-0.15,9.07
1533.61,-1.91,-0.24,8.9
1533.42,-1.86,-0.16,8.95
1532.75,-1.86,-0.2,9.05
1533.23,-1.87,-0.21,9.03
1533.32,-1.88,-0.24,9.02
1533.04,-1.87,-0.26,9.03
1533.71,-1.97,-0.23,9.07
1533.52,-1.92,-0.24,8.97
1533.32,-1.91,-0.22,9.0
1533.23,-1.91,-0.16,9.03
1533.42,-1.86,-0.25,8.98
1533.42,-1.91,-0.22,8.93
1533.32,-1.92,-0.26,8.98
1533.42,-1.88,-0.24,9.04
1533.32,-1.76,-0.14,9.04
1533.61,-1.86,-0.15,9.07
1533.04,-1.89,-0.27,8.87
1533.13,-1.87,-0.21,9.1
1532.75,-1.86,-0.15,8.94
1533.23,-1.85,-0.19,8.96
1533.23,-1.88,-0.21,9.03
1533.04,-1.89,-0.15,9.01
1533.23,-1.9,-0.24,8.92
1533.32,-1.9,-0.2,9.1
1533.42,-1.92,-0.23,8.94
1533.13,-1.86,-0.17,9.02
1532.94,-1.89,-0.15,9.02
1532.65,-1.94,-0.25,9.14
1532.85,-1.95,-0.19,9.01
1533.61,-1.86,-0.27,9.0
1533.8,-1.78,-0.22,9.04
1533.13,-1.85,-0.19,9.01
1533.13,-1.91,-0.22,8.99
1533.42,-1.91,-0.16,9.0
1533.52,-1.87,-0.19,9.01
1533.42,-1.88,-0.19,9.06
1533.42,-1.84,-0.24,9.1
1532.75,-1.89,-0.23,9.05
1533.52,-1.92,-0.22,9.04
1533.8,-1.9,-0.18,9.03
1533.61,-1.87,-0.21,8.93
1533.42,-1.91,-0.23,9.01
1533.52,-1.89,-0.15,8.99
1533.32,-1.87,-0.19,8.99
1533.13,-1.89,-0.25,9.02
1533.52,-1.91,-0.19,8.95
1533.04,-1.91,-0.14,9.01
1533.13,-1.92,-0.27,8.98
1532.85,-1.83,-0.23,8.99
1533.42,-1.91,-0.24,9.0
1532.85,-1.87,-0.22,9.01
1533.52,-1.81,-0.16,9.22
1533.23,-1.99,-0.17,9.07
1532.85,-1.93,-0.21,9.03
1533.13,-1.86,-0.18,9.03
1533.13,-1.89,-0.22,8.96
1533.42,-1.85,-0.24,9.15
1533.42,-1.89,-0.23,9.01
1533.13,-1.91,-0.21,9.07
1533.13,-1.84,-0.21,9.12
1532.94,-1.89,-0.17,9.01
1533.42,-1.92,-0.23,9.08
1533.13,-1.87,-0.21,9.03
1533.23,-1.87,-0.2,9.03
1533.42,-1.91,-0.2,9.07
1533.42,-1.93,-0.17,9.05
1533.23,-1.82,-0.19,9.02
1533.32,-1.87,-0.24,8.99
1533.42,-1.9,-0.23,9.0
1533.8,-1.9,-0.27,9.06
1533.9,-1.9,-0.26,9.05
1533.42,-1.9,-0.22,9.08
1533.8,-1.85,-0.22,8.99
1533.13,-1.83,-0.23,9.06
1533.23,-1.92,-0.22,9.01
1533.23,-1.84,-0.21,9.04
1533.71,-1.91,-0.24,8.95
1532.94,-1.9,-0.21,9.03
1533.9,-1.87,-0.17,9.05
1533.61,-1.86,-0.21,9.05
1533.13,-1.89,-0.2,8.99
1533.23,-1.98,-0.22,9.07
1533.42,-1.9,-0.21,9.0
1533.71,-1.87,-0.25,8.96
1533.42,-1.8,-0.24,8.94
1533.9,-1.88,-0.22,8.99
1533.13,-1.86,-0.22,9.0
1533.13,-1.87,-0.23,9.04
1533.23,-1.85,-0.23,9.1
1533.42,-1.81,-0.18,8.94
1533.42,-1.9,-0.16,9.08
1532.75,-1.95,-0.16,9.1
1533.61,-1.93,-0.21,8.94
1533.13,-1.86,-0.16,8.97
1533.9,-1.89,-0.25,9.08
1533.99,-1.79,-0.19,8.97
1533.32,-1.9,-0.23,9.08
1532.85,-1.86,-0.21,8.97
1532.75,-1.89,-0.2,9.03
1533.32,-1.87,-0.23,9.04
1532.94,-1.9,-0.18,9.05
1533.61,-1.87,-0.18,9.03
1533.71,-1.86,-0.17,9.06
1533.32,-1.89,-0.24,9.02
1533.23,-1.93,-0.22,8.94
1533.52,-1.86,-0.23,9.03
1533.52,-1.84,-0.22,9.07
1533.52,-1.92,-0.17,9.04
1533.61,-1.94,-0.21,9.04
1533.23,-1.87,-0.22,9.01
1533.42,-1.9,-0.19,9.01
1533.42,-1.89,-0.2,9.0
1533.32,-1.88,-0.23,9.05
1533.61,-1.89,-0.2,9.04
1532.85,-1.9,-0.2,8.95
1533.42,-1.88,-0.21,9.08
1533.61,-1.89,-0.16,8.97
1533.42,-1.84,-0.16,9.07
1533.42,-1.88,-0.16,9.04
1533.23,-1.85,-0.2,8.97
1533.61,-1.83,-0.18,9.0
1533.99,-1.89,-0.22,9.08
1533.61,-1.94,-0.23,9.01
1534.28,-1.89,-0.2,9.0
1533.9,-1.91,-0.15,8.93
1533.32,-1.88,-0.19,9.08
1533.42,-1.83,-0.17,8.99
1532.65,-1.88,-0.17,9.0
1532.56,-1.91,-0.19,9.1
1533.42,-1.89,-0.23,9.04
1533.04,-1.86,-0.13,9.02
1533.99,-1.91,-0.2,9.05
1534.09,-1.9,-0.19,8.93
1533.99,-1.89,-0.27,9.03
1533.23,-1.84,-0.27,9.03
1533.8,-1.88,-0.18,9.0
1533.8,-1.89,-0.18,8.98
1533.8,-1.92,-0.17,9.04
1533.8,-1.84,-0.14,9.09
1533.13,-1.86,-0.27,9.06
1533.52,-1.92,-0.27,9.03
1533.13,-1.94,-0.19,8.99
1533.32,-1.92,-0.2,8.95
1533.42,-1.8,-0.19,9.06
1533.32,-1.86,-0.22,9.13
1533.04,-1.88,-0.23,9.0
1533.71,-1.87,-0.24,9.02
1533.8,-1.87,-0.19,9.05
1533.61,-1.9,-0.14,9.02
1533.13,-1.89,-0.19,9.11
1533.04,-1.86,-0.19,9.09
1533.13,-1.89,-0.2,9.05
1533.04,-1.88,-0.21,9.06
1533.04,-1.83,-0.24,9.07
1533.52,-1.87,-0.22,9.03
1533.42,-1.9,-0.19,9.06
1533.61,-1.93,-0.17,9.03
1533.61,-1.9,-0.2,9.05
1532.85,-1.92,-0.16,9.04
1533.23,-1.89,-0.21,9.04
1533.04,-1.88,-0.18,9.02
1533.04,-1.87,-0.22,9.06
1533.42,-1.9,-0.19,9.03
1532.85,-1.82,-0.22,9.04
1532.65,-1.9,-0.17,8.97
1532.94,-1.96,-0.21,9.05
1533.04,-1.87,-0.17,9.0
1533.32,-1.92,-0.17,9.0
1533.13,-1.9,-0.21,9.03
1533.42,-1.87,-0.26,8.94
1533.32,-1.87,-0.23,9.0
1533.23,-1.86,-0.22,9.0
1533.13,-1.88,-0.2,9.03
1533.32,-1.9,-0.16,9.08
1533.32,-1.87,-0.21,8.98
1533.52,-1.92,-0.19,9.07
1533.42,-1.9,-0.25,8.98
1533.61,-1.85,-0.24,9.0
1533.52,-1.91,-0.19,9.02
1533.32,-1.89,-0.15,9.03
1533.23,-1.88,-0.23,9.04
1532.85,-1.89,-0.24,8.99
1533.13,-1.85,-0.17,9.01
1532.46,-1.85,-0.21,8.98
1533.71,-1.85,-0.2,8.97
1533.13,-1.92,-0.17,9.01
1533.13,-1.92,-0.18,9.0
1533.61,-1.9,-0.17,9.03
1532.37,-1.81,-0.22,9.01
1532.94,-1.85,-0.23,9.09
1533.61,-1.91,-0.2,9.04
1533.9,-1.91,-0.23,8.93
1533.52,-1.83,-0.18,9.02
1533.13,-1.82,-0.2,8.92
1533.8,-1.89,-0.19,9.01
1533.52,-1.85,-0.21,8.97
1533.13,-1.87,-0.22,9.06
1533.42,-1.91,-0.2,9.01
1533.61,-1.87,-0.24,9.13
1533.61,-1.9,-0.21,8.92
1533.13,-1.84,-0.24,8.96
1533.52,-1.93,-0.23,9.01
1533.13,-1.81,-0.21,9.06
1533.32,-1.86,-0.21,9.05
1533.32,-1.97,-0.17,9.02
1533.13,-1.89,-0.23,8.96
1532.94,-1.83,-0.17,9.06
1533.23,-1.87,-0.2,8.99
1533.13,-1.89,-0.17,9.05
1533.04,-1.87,-0.21,9.07
1533.8,-1.84,-0.24,9.1
1533.13,-1.89,-0.17,9.12
1533.52,-1.95,-0.22,9.01
1532.94,-1.92,-0.17,9.01
1533.04,-1.9,-0.22,9.04
1533.8,-1.92,-0.26,9.04
1532.94,-1.91,-0.24,9.0
1533.61,-2.0,-0.21,9.0
1533.8,-1.89,-0.18,9.02
1533.42,-1.91,-0.15,9.0
Altitude,ax,ay,az
1533.99,-1.84,-0.21,9.05
1533.71,-1.91,-0.2,9.04
1533.42,-1.94,-0.23,9.02
1534.76,-1.91,-0.19,9.01
1534.09,-1.85,-0.19,9.04
1533.8,-1.83,-0.15,8.99
1533.32,-1.89,-0.17,9.02
1533.9,-1.94,-0.23,8.95
1533.61,-1.89,-0.2,9.04
1533.8,-1.81,-0.21,9.15
1533.9,-1.83,-0.23,9.07
1533.9,-1.93,-0.21,9.05
1533.32,-1.92,-0.22,8.99
1533.61,-1.91,-0.23,9.13
1534.28,-1.93,-0.23,9.01
1533.13,-1.9,-0.19,9.0
1534.09,-1.88,-0.18,9.01
1534.19,-1.94,-0.23,9.05
1533.99,-1.86,-0.23,8.9
1533.71,-1.85,-0.21,9.1
1533.8,-1.9,-0.17,9.0
1533.52,-1.93,-0.2,9.04
1533.8,-1.88,-0.21,9.04
1533.99,-1.92,-0.19,9.12
1534.28,-1.9,-0.2,8.97
1533.99,-1.88,-0.21,9.05
1533.04,-1.81,-0.26,8.97
1533.71,-1.89,-0.21,8.98
1533.61,-1.92,-0.19,9.04
1533.8,-1.87,-0.22,9.01
1534.09,-1.9,-0.2,9.01
1533.9,-1.84,-0.21,9.03
1533.99,-1.88,-0.22,9.03
1534.09,-1.87,-0.24,9.09
1533.9,-1.93,-0.23,9.11
1533.8,-1.91,-0.21,9.02
1534.19,-1.78,-0.2,9.05
1533.52,-1.8,-0.17,9.02
1533.8,-1.94,-0.25,9.01
1534.09,-1.96,-0.26,9.05
1534.09,-1.96,-0.28,8.96
1534.66,-1.8,-0.2,9.02
1533.99,-1.8,-0.18,9.04
1534.09,-1.86,-0.2,9.01
1534.19,-1.95,-0.29,9.05
1533.61,-1.88,-0.24,8.98
1533.23,-1.82,-0.21,8.97
1533.61,-1.81,-0.17,9.09
1533.71,-1.89,-0.23,9.01
1533.61,-1.97,-0.2,9.0
1534.28,-1.97,-0.23,9.03
1533.9,-1.9,-0.21,9.03
1533.52,-1.8,-0.23,9.08
1533.71,-1.92,-0.28,9.01
1533.32,-1.93,-0.18,9.02
1533.8,-1.92,-0.17,9.09
1533.9,-1.85,-0.19,9.04
1533.9,-1.91,-0.17,9.09
1533.71,-2.0,-0.27,9.06
1533.04,-1.96,-0.19,9.06
1533.8,-1.69,-0.21,9.11
1533.8,-1.79,-0.28,8.97
1533.9,-1.99,-0.19,8.98
1534.09,-1.94,-0.19,9.0
1534.66,-1.95,-0.25,8.99
1535.05,-1.74,-0.14,9.13
1533.8,-1.8,-0.2,8.97
1533.61,-2.02,-0.2,9.03
1533.23,-1.89,-0.19,9.08
1533.23,-1.83,-0.19,9.07
1533.9,-1.92,-0.23,9.03
1533.71,-1.88,-0.23,9.06
1533.71,-1.89,-0.17,9.03
1533.71,-1.88,-0.24,8.98
1533.04,-1.89,-0.21,9.0
1533.99,-1.92,-0.23,9.0
1533.71,-1.86,-0.22,9.1
1533.9,-1.78,-0.21,9.11
1533.71,-1.92,-0.22,9.04
1534.28,-1.91,-0.21,9.04
1533.42,-1.92,-0.21,8.99
1534.28,-1.88,-0.19,8.92
1533.8,-1.92,-0.22,9.08
1533.8,-1.88,-0.19,9.0
1533.8,-1.88,-0.2,9.07
1533.8,-1.92,-0.2,9.1
1533.42,-1.95,-0.23,9.07
1533.04,-1.92,-0.22,8.91
1533.42,-1.94,-0.24,9.05
1533.13,-1.84,-0.23,8.94
1533.23,-1.86,-0.18,9.1
1533.8,-1.79,-0.24,8.93
1534.19,-1.86,-0.18,9.04
1533.8,-1.9,-0.18,9.05
1534.28,-1.91,-0.19,9.0
1533.04,-1.88,-0.28,9.03
1533.52,-1.9,-0.2,9.05
1534.47,-1.92,-0.24,9.0
1534.47,-1.89,-0.18,9.05
1533.99,-1.87,-0.25,8.98
1534.57,-1.92,-0.22,8.99
1534.38,-1.82,-0.2,8.98
1534.28,-1.87,-0.26,9.03
1534.19,-1.9,-0.22,9.07
1534.47,-1.92,-0.16,9.06
1534.28,-1.89,-0.2,9.03
1534.38,-1.94,-0.19,9.06
1533.61,-1.87,-0.21,9.05
1534.28,-1.85,-0.24,9.0
1534.09,-1.91,-0.25,9.05
1533.71,-1.88,-0.2,9.03
1533.42,-1.87,-0.22,9.0
1534.28,-1.94,-0.22,8.94
1534.19,-1.86,-0.25,9.05
1533.99,-1.89,-0.17,8.98
1533.32,-1.94,-0.18,9.02
1534.38,-1.87,-0.27,9.07
1534.47,-1.89,-0.22,9.01
1534.28,-1.92,-0.25,9.04
1534.28,-1.87,-0.22,9.14
1533.8,-1.86,-0.2,9.04
1534.09,-1.92,-0.22,9.06
1534.47,-1.91,-0.16,9.03
1534.47,-1.92,-0.2,8.99
1533.8,-1.84,-0.19,8.96
1534.38,-1.94,-0.23,9.04
1533.71,-1.91,-0.12,9.05
1533.61,-1.9,-0.2,8.95
1533.99,-1.97,-0.22,9.03
1533.71,-1.89,-0.18,9.01
1533.52,-1.94,-0.23,8.98
1534.28,-1.89,-0.16,9.11
1533.99,-1.89,-0.27,9.0
1533.52,-1.93,-0.24,9.05
1533.61,-1.91,-0.22,8.91
1533.52,-1.84,-0.16,9.1
1533.71,-1.9,-0.26,8.93
1534.09,-1.86,-0.18,9.05
1534.19,-1.86,-0.23,8.94
1534.19,-1.96,-0.24,9.12
1534.28,-1.9,-0.22,8.85
1534.19,-1.87,-0.24,9.09
1533.9,-1.88,-0.19,9.05
1534.19,-1.89,-0.2,9.05
1534.28,-1.93,-0.2,8.97
1534.19,-1.86,-0.16,9.04
1533.8,-1.89,-0.16,8.94
1533.61,-1.85,-0.21,9.07
1533.13,-1.89,-0.21,9.03
1533.13,-1.91,-0.23,9.01
1534.47,-1.89,-0.15,9.06
1533.99,-1.84,-0.21,9.07
1534.19,-1.89,-0.17,9.06
1534.19,-1.89,-0.2,9.09
1534.57,-1.82,-0.2,9.08
1534.19,-1.91,-0.2,9.02
1533.42,-1.86,-0.2,9.08
1534.28,-1.89,-0.2,9.09
1534.28,-1.9,-0.26,9.05
1534.09,-1.81,-0.23,9.05
1534.28,-1.96,-0.22,9.08
1534.19,-1.9,-0.22,9.0
1533.61,-1.85,-0.2,9.04
1533.32,-1.88,-0.22,9.02
1533.9,-1.9,-0.2,8.96
1533.8,-1.93,-0.16,9.06
1533.42,-1.96,-0.23,9.05
1533.61,-1.9,-0.22,9.0
1533.8,-1.86,-0.25,9.12
1533.8,-1.82,-0.24,9.0
1534.09,-1.87,-0.22,9.11
1534.09,-1.84,-0.25,9.08
1533.23,-1.87,-0.26,9.07
1533.9,-1.83,-0.24,9.1
1533.71,-1.9,-0.22,9.11
1533.32,-1.89,-0.15,9.03
1534.09,-1.9,-0.2,8.96
1533.9,-1.91,-0.2,9.04
1533.8,-1.87,-0.19,9.07
1533.61,-1.85,-0.26,9.03
1533.8,-1.95,-0.19,9.02
1533.99,-1.86,-0.27,9.03
1534.09,-1.87,-0.18,9.02
1533.8,-1.87,-0.2,9.0
1533.99,-1.86,-0.11,9.01
1533.52,-1.9,-0.17,8.94
1533.9,-1.91,-0.16,9.03
1533.8,-1.86,-0.17,9.0
1533.99,-1.92,-0.13,8.98
1533.99,-1.91,-0.15,9.03
1533.71,-1.88,-0.17,8.97
1533.99,-1.95,-0.21,8.96
1534.19,-1.91,-0.19,9.01
1533.99,-1.92,-0.19,9.02
1533.8,-1.9,-0.2,8.98
1533.9,-1.87,-0.26,8.92
1533.61,-1.84,-0.18,9.09
1533.99,-1.82,-0.16,9.0
1533.9,-1.85,-0.23,9.12
1533.9,-1.91,-0.22,8.98
1533.61,-1.87,-0.25,9.06
1534.09,-1.89,-0.18,8.94
1533.9,-1.95,-0.24,9.04
1533.9,-1.86,-0.17,9.08
1533.8,-1.91,-0.19,9.06
1533.71,-1.96,-0.23,8.97
1533.8,-1.91,-0.14,9.0
1534.28,-1.9,-0.18,9.03
1533.8,-1.93,-0.28,9.01
1533.32,-1.89,-0.15,9.11
1533.52,-1.85,-0.2,9.07
1533.9,-1.89,-0.2,8.99
1533.9,-1.86,-0.22,9.01
1533.8,-1.96,-0.19,8.99
1533.9,-1.84,-0.27,8.94
1533.9,-1.88,-0.19,9.09
1533.99,-1.85,-0.24,8.96
1533.8,-1.9,-0.23,9.04
1533.32,-1.86,-0.2,9.06
1533.04,-1.83,-0.24,9.07
1533.8,-1.94,-0.27,8.93
1534.19,-1.92,-0.23,9.03
1533.32,-1.83,-0.19,9.01
1533.52,-1.86,-0.29,9.07
1532.85,-1.88,-0.14,9.06
1533.99,-1.94,-0.2,9.07
1534.09,-1.98,-0.25,9.0
1534.09,-1.86,-0.25,9.07
1534.09,-1.86,-0.2,9.06
1534.19,-1.82,-0.17,9.03
1533.99,-1.84,-0.19,9.03
1533.8,-1.91,-0.2,9.09
1533.99,-1.86,-0.17,9.06
1534.28,-1.91,-0.18,8.96
1533.9,-1.94,-0.25,9.01
1533.9,-1.9,-0.21,9.11
1533.99,-1.83,-0.27,9.01
1534.28,-1.96,-0.22,9.09
1534.28,-1.84,-0.25,9.04
1534.09,-1.9,-0.23,8.98
1534.19,-1.91,-0.2,8.92
1534.47,-1.88,-0.21,9.09
1533.9,-1.86,-0.2,9.01
1534.19,-1.89,-0.21,9.04
1533.9,-1.86,-0.16,9.04
1533.8,-1.84,-0.21,9.07
1533.9,-1.89,-0.18,9.05
1533.71,-1.88,-0.2,8.98
1533.71,-1.88,-0.18,9.07
1533.99,-1.82,-0.19,9.05
1534.19,-1.91,-0.22,9.16
1534.19,-1.94,-0.2,9.03
1533.99,-1.89,-0.21,9.03
1534.28,-1.86,-0.18,9.07
1533.9,-1.87,-0.18,9.07
1533.61,-1.95,-0.26,8.96
1532.85,-1.83,-0.17,9.01
1533.04,-1.84,-0.15,9.01
1533.71,-1.91,-0.19,8.99
1533.52,-1.89,-0.17,9.1
1534.09,-1.84,-0.23,9.04
1533.8,-1.92,-0.19,9.01
1533.9,-1.84,-0.16,8.96
1534.19,-1.81,-0.25,9.04
1533.99,-1.92,-0.21,9.11
1533.61,-1.88,-0.18,9.01
1533.8,-1.92,-0.24,9.06
1533.52,-1.82,-0.19,8.91
1533.9,-1.88,-0.17,9.08
1533.71,-1.87,-0.2,9.06
1533.52,-1.88,-0.16,9.06
1533.61,-1.9,-0.21,9.07
1533.61,-1.92,-0.26,9.02
1534.09,-1.86,-0.17,9.07
1533.52,-1.84,-0.19,8.97
1533.71,-1.86,-0.24,8.99
1534.19,-1.91,-0.23,9.03
1533.52,-1.89,-0.26,9.1
1534.09,-1.9,-0.23,8.98
1533.52,-1.92,-0.24,9.03
1533.99,-1.92,-0.22,8.94
1533.8,-1.96,-0.18,9.0
1533.71,-1.87,-0.26,8.95
1533.8,-1.88,-0.23,9.07
1533.71,-1.86,-0.22,9.04
1532.94,-1.81,-0.2,9.05
1533.23,-1.86,-0.22,8.98
1533.99,-1.85,-0.23,8.98
1533.42,-1.91,-0.21,9.05
1533.61,-1.9,-0.17,9.11
1533.32,-1.91,-0.16,9.05
1533.99,-1.87,-0.21,8.94
1533.42,-1.84,-0.16,9.11
1533.9,-1.86,-0.23,8.97
1533.52,-1.92,-0.19,9.1
1533.61,-1.91,-0.22,8.99
1533.9,-1.85,-0.21,9.06
1533.42,-1.86,-0.22,9.0
1533.8,-1.88,-0.21,9.03
1533.71,-1.88,-0.19,9.08
1534.09,-1.87,-0.26,8.97
1533.42,-1.86,-0.18,9.03
1533.32,-1.88,-0.21,9.03
1533.9,-1.93,-0.19,9.04
1533.42,-1.92,-0.22,8.98
1533.61,-1.93,-0.22,9.05
1533.42,-1.88,-0.2,9.03
1533.71,-1.98,-0.22,9.02
1533.8,-1.93,-0.2,9.03
1533.99,-1.88,-0.19,9.05
1533.61,-1.94,-0.27,9.09
1533.99,-1.85,-0.17,9.03
1533.71,-1.88,-0.21,8.95
1533.13,-1.92,-0.23,9.0
1533.9,-1.87,-0.24,9.03
1533.71,-1.86,-0.23,9.07
1533.9,-1.88,-0.17,9.06
1533.9,-1.89,-0.17,8.96
1533.99,-1.89,-0.23,9.05
1534.09,-1.89,-0.25,8.96
1534.19,-1.86,-0.2,8.97
1533.99,-1.86,-0.17,8.96
1533.71,-1.86,-0.23,8.99
1534.09,-1.88,-0.2,8.97
1533.32,-1.86,-0.25,8.98
1533.8,-1.89,-0.2,9.02
1533.71,-1.96,-0.24,9.04
1533.9,-1.91,-0.21,9.05
1533.13,-1.88,-0.23,9.07
1533.13,-1.85,-0.26,9.01
1534.19,-1.91,-0.15,8.97
1533.8,-1.87,-0.13,9.03
1534.19,-1.96,-0.24,9.03
1534.38,-1.83,-0.22,9.04
1533.8,-1.91,-0.17,9.04
1534.09,-1.88,-0.24,9.03
1533.9,-1.89,-0.19,9.0
1534.28,-1.88,-0.23,8.98
1533.8,-1.91,-0.22,9.05
1533.52,-1.88,-0.19,8.98
1534.09,-1.84,-0.22,9.09
1534.09,-1.87,-0.22,8.94
1533.13,-1.95,-0.2,9.03
1533.52,-1.89,-0.29,8.98
1533.52,-1.9,-0.2,9.04
1533.23,-1.87,-0.2,9.0
1533.71,-1.91,-0.19,8.96
1533.32,-1.89,-0.19,9.16
1533.71,-1.9,-0.22,9.0
1533.99,-1.91,-0.2,9.03
1533.61,-1.87,-0.21,8.91
1534.09,-1.87,-0.22,9.11
1533.9,-1.98,-0.17,8.99
1533.8,-1.91,-0.24,9.05
1533.8,-1.87,-0.26,9.09
1534.47,-1.91,-0.2,9.04
1533.99,-1.85,-0.26,9.07
1534.09,-1.92,-0.2,9.07
1534.19,-1.86,-0.18,8.98
1533.71,-1.88,-0.21,9.09
1533.32,-1.84,-0.21,9.12
1533.8,-1.88,-0.23,9.03
1533.71,-1.9,-0.22,8.98
1533.52,-1.89,-0.22,9.01
1533.23,-1.82,-0.28,8.92
1533.71,-1.87,-0.2,9.03
1533.9,-1.86,-0.21,9.11
1533.9,-1.84,-0.21,8.99
1533.8,-1.87,-0.24,9.02
1533.71,-1.85,-0.22,9.04
1533.61,-1.91,-0.24,9.03
1533.42,-1.93,-0.19,9.09
1534.19,-1.86,-0.22,8.97
1534.09,-1.92,-0.23,9.04
1533.8,-1.91,-0.16,8.97
1533.9,-1.83,-0.18,9.1
1533.8,-1.86,-0.21,9.06
1533.9,-1.93,-0.19,9.07
1533.71,-1.92,-0.22,9.04
1533.8,-1.94,-0.21,8.98
1533.13,-1.92,-0.2,9.05
1533.71,-1.88,-0.21,9.04
1534.28,-1.85,-0.21,9.02
1533.8,-1.87,-0.13,9.07
1534.76,-1.93,-0.21,9.03
1534.28,-1.95,-0.22,9.05
1534.09,-1.95,-0.21,9.0
1533.8,-1.9,-0.16,9.07
1533.9,-1.93,-0.22,9.0
1533.61,-1.95,-0.26,9.02
1533.52,-1.88,-0.17,8.91
1533.23,-1.86,-0.15,9.11
1533.61,-1.92,-0.28,9.04
1534.47,-1.89,-0.18,9.04
1534.09,-1.88,-0.19,9.05
1533.71,-1.92,-0.17,8.99
1533.71,-1.89,-0.27,9.02
1533.42,-1.86,-0.21,9.08
1533.71,-1.97,-0.2,9.0
1534.28,-1.91,-0.2,9.02
1533.99,-1.85,-0.2,8.98
1534.09,-1.89,-0.19,9.06
1533.8,-1.87,-0.22,9.03
1534.09,-1.89,-0.2,9.03
1534.47,-1.88,-0.16,9.03
1533.61,-1.93,-0.18,8.97
1534.57,-1.95,-0.17,9.1
1533.99,-1.89,-0.2,9.09
1534.09,-1.89,-0.19,8.91
1533.9,-1.92,-0.23,9.05
1533.42,-1.91,-0.17,9.0
1533.99,-1.9,-0.18,8.96
1533.9,-1.91,-0.24,9.12
1534.09,-1.84,-0.26,9.04
1533.9,-1.86,-0.2,8.98
1534.19,-1.84,-0.21,9.05
1533.99,-1.93,-0.18,9.0
1533.32,-1.9,-0.22,8.97
1533.8,-1.85,-0.23,8.95
1533.8,-1.89,-0.26,8.9
1533.61,-1.89,-0.21,9.08
1533.8,-1.9,-0.22,9.09
1534.09,-1.83,-0.23,9.09
1534.09,-1.87,-0.23,9.05
1533.8,-1.9,-0.18,8.97
1533.61,-1.99,-0.23,9.05
1533.52,-1.91,-0.28,8.97
1533.52,-1.88,-0.21,9.03
1533.71,-1.89,-0.22,9.08
1533.9,-1.82,-0.16,9.06
1533.9,-1.93,-0.23,8.91
1533.13,-1.94,-0.26,9.1
1532.85,-1.83,-0.19,9.1
1533.61,-1.88,-0.19,8.99
1533.9,-1.84,-0.22,9.08
1533.71,-1.93,-0.2,8.99
1533.52,-1.9,-0.24,9.07
1533.8,-1.87,-0.19,9.08
1534.09,-1.9,-0.14,9.04
1533.8,-1.9,-0.19,9.05
1533.61,-1.89,-0.18,8.97
1533.52,-1.93,-0.21,9.06
1533.8,-1.88,-0.23,9.03
1533.99,-1.9,-0.19,8.97
1534.19,-1.9,-0.19,9.04
1533.71,-1.85,-0.23,9.02
1533.42,-1.91,-0.18,9.04
1533.32,-1.97,-0.24,8.96
1533.61,-1.82,-0.22,9.1
1533.99,-1.9,-0.25,9.04
1533.8,-1.93,-0.25,8.98
1534.09,-1.88,-0.14,8.97
1534.09,-1.84,-0.19,9.0
1533.32,-1.9,-0.23,8.98
1533.42,-1.9,-0.16,8.99
1533.99,-1.9,-0.16,9.06
1533.8,-1.85,-0.19,9.08
1533.9,-1.83,-0.19,9.03
1533.42,-1.88,-0.19,8.94
1533.61,-1.87,-0.23,9.07
1533.71,-1.94,-0.18,8.96
1533.99,-1.92,-0.19,9.07
1533.99,-1.91,-0.17,9.02
1534.09,-1.82,-0.22,8.96
1533.9,-1.9,-0.17,8.96
1534.09,-1.92,-0.21,9.02
1533.8,-1.9,-0.16,8.98
1533.71,-1.84,-0.22,9.11
1534.19,-1.86,-0.18,8.96
1534.09,-1.85,-0.2,9.05
1533.99,-1.93,-0.21,9.15
1533.99,-1.89,-0.23,9.02
1533.42,-1.94,-0.17,9.06
1533.71,-1.86,-0.19,8.97
1533.71,-1.88,-0.17,9.05
1533.42,-1.88,-0.24,9.04
1533.99,-1.92,-0.12,8.95
1533.9,-1.88,-0.22,9.0
1533.61,-1.84,-0.13,9.04
1533.71,-1.96,-0.17,9.0
1533.61,-1.91,-0.22,9.07
1533.9,-1.84,-0.23,9.09
1533.23,-1.83,-0.27,9.03
1533.52,-1.89,-0.15,8.95
1533.71,-1.93,-0.24,8.96
1533.52,-1.86,-0.28,9.04
1533.8,-1.89,-0.24,9.03
1533.42,-1.9,-0.17,9.11
1533.71,-1.94,-0.26,9.08
1533.52,-1.91,-0.19,9.04
1534.19,-1.92,-0.24,9.08
1533.71,-1.93,-0.22,9.05
1533.99,-1.87,-0.24,9.04
1533.42,-1.84,-0.21,8.97
1533.52,-1.91,-0.14,9.11
1533.71,-1.91,-0.21,8.96
1533.9,-1.96,-0.18,9.09
1534.09,-1.97,-0.24,9.01
1533.32,-1.9,-0.18,8.93
1534.19,-1.92,-0.24,8.94
1533.8,-1.76,-0.08,8.99
1534.19,-1.74,-0.27,9.25
1533.61,-1.83,-0.08,9.01
1533.71,-1.9,-0.28,9.03
1533.61,-1.93,-0.27,9.05
1533.8,-1.98,-0.24,9.03
1534.09,-1.94,-0.19,8.99
1533.71,-1.88,-0.23,8.92
1533.52,-1.87,-0.16,9.01
1533.52,-1.9,-0.27,9.01
1533.52,-1.82,-0.19,8.99
1533.23,-1.95,-0.22,9.02
1534.47,-1.96,-0.24,9.03
1533.9,-1.95,-0.2,9.02
1534.19,-1.91,-0.22,9.06
1533.8,-1.84,-0.23,9.04
1533.99,-1.88,-0.17,9.05
1533.32,-1.92,-0.26,8.99
1533.8,-1.92,-0.19,8.98
1533.99,-1.88,-0.13,9.02
1533.71,-1.84,-0.19,9.05
1533.71,-1.73,-0.21,9.0
1533.71,-1.94,-0.25,9.02
1533.8,-1.97,-0.24,9.01
1533.9,-1.94,-0.24,8.97
1533.52,-1.92,-0.18,9.08
1533.71,-1.83,-0.16,9.04
1533.99,-1.8,-0.24,9.08
1533.71,-1.87,-0.17,8.99
1533.9,-1.81,-0.19,9.0
1533.9,-1.93,-0.11,9.06
1533.61,-1.99,-0.23,9.07
1533.42,-1.98,-0.24,8.96
1533.42,-1.88,-0.19,9.02
1534.09,-1.95,-0.2,8.98
1533.99,-1.81,-0.25,9.04
1533.9,-1.9,-0.17,9.06
1533.71,-1.88,-0.23,9.05
1533.71,-1.86,-0.2,9.06
1533.61,-1.9,-0.27,9.09
1533.99,-1.94,-0.25,8.97
1534.19,-1.93,-0.27,9.0
1534.28,-1.85,-0.25,9.06
1533.9,-1.95,-0.19,8.96
1533.71,-1.89,-0.19,9.02
1533.13,-1.97,-0.22,8.99
1533.52,-1.93,-0.22,9.05
1533.23,-1.92,-0.2,9.01
1534.19,-1.84,-0.24,9.05
1533.8,-1.88,-0.21,9.04
1533.42,-1.89,-0.19,9.02
1534.09,-1.87,-0.21,8.99
1533.9,-1.97,-0.17,9.09
1534.09,-1.87,-0.24,9.08
1533.42,-1.88,-0.2,9.1
1533.71,-1.82,-0.23,9.01
1534.09,-1.86,-0.23,8.97
1533.61,-1.92,-0.19,9.03
1533.61,-1.87,-0.2,9.04
1533.52,-1.92,-0.23,9.0
1533.71,-1.94,-0.16,9.07
1533.71,-1.89,-0.19,8.94
1533.71,-1.86,-0.26,9.02
1533.42,-1.88,-0.2,9.02
1533.42,-1.88,-0.24,9.05
1533.32,-1.92,-0.23,9.0
1533.23,-1.96,-0.28,9.03
1533.32,-1.92,-0.2,8.91
1533.8,-1.8,-0.25,9.01
1533.23,-1.87,-0.23,9.0
1533.52,-1.97,-0.19,8.93
1533.23,-1.91,-0.2,9.09
1533.42,-1.86,-0.21,9.07
1533.8,-1.87,-0.18,9.09
1533.71,-1.87,-0.22,8.9
1533.52,-1.93,-0.24,9.02
1533.04,-1.84,-0.21,9.03
1533.71,-1.82,-0.25,9.11
1534.28,-1.84,-0.18,9.0
1534.09,-1.91,-0.17,8.96
1533.8,-1.86,-0.21,9.05
1533.8,-1.87,-0.2,9.03
1534.38,-1.9,-0.25,9.05
1533.71,-1.87,-0.24,9.01
1533.8,-1.86,-0.19,9.06
1533.13,-1.88,-0.24,9.04
1533.71,-1.92,-0.17,9.01
1533.99,-1.92,-0.2,9.14
1533.71,-1.95,-0.18,8.96
1533.71,-1.9,-0.18,9.12
1533.99,-1.85,-0.24,8.93
1533.99,-1.86,-0.23,9.03
1533.61,-1.88,-0.15,9.03
1533.61,-1.9,-0.23,8.98
1534.47,-1.84,-0.19,9.05
1533.8,-1.91,-0.23,9.06
1533.9,-1.86,-0.12,9.0
1534.09,-1.88,-0.24,9.0
1533.42,-1.81,-0.21,9.08
1533.32,-1.84,-0.21,9.05
1533.99,-1.92,-0.26,9.03
1533.23,-1.93,-0.21,9.12
1533.8,-1.89,-0.18,9.09
1533.52,-1.97,-0.22,9.05
1533.8,-1.94,-0.23,9.04
1533.61,-1.87,-0.19,9.05
1533.61,-1.89,-0.17,8.92
1533.9,-1.84,-0.21,9.07
1533.04,-1.9,-0.18,9.03
1533.42,-1.88,-0.25,9.01
1533.8,-1.89,-0.18,9.05
1533.61,-1.89,-0.17,9.03
1534.47,-1.88,-0.21,9.11
1533.13,-1.85,-0.23,9.03
1533.61,-1.84,-0.23,9.08
1533.52,-1.86,-0.21,9.02
1533.52,-1.9,-0.24,9.07
1533.42,-1.86,-0.24,8.99
1533.8,-1.89,-0.22,8.98
1533.61,-1.87,-0.19,8.98
1533.61,-1.91,-0.22,9.03
1533.42,-1.91,-0.18,9.05
1533.42,-1.89,-0.17,9.03
1533.71,-1.84,-0.13,8.98
1533.8,-1.82,-0.21,8.97
1533.71,-1.82,-0.26,8.96
1533.8,-1.81,-0.29,9.02
1533.99,-2.0,-0.24,9.12
1533.99,-2.06,-0.16,9.06
1533.52,-1.89,-0.2,9.0
1533.8,-1.79,-0.19,9.05
1533.9,-1.78,-0.21,9.06
1533.32,-1.91,-0.21,8.98
1533.8,-1.86,-0.24,9.01
1533.32,-1.76,-0.21,9.03
1533.71,-1.83,-0.13,9.13
1533.42,-1.85,-0.25,9.04
1533.9,-1.96,-0.25,9.03
1533.52,-1.94,-0.11,8.99
1533.99,-1.93,-0.18,9.01
1533.13,-1.91,-0.19,9.02
1533.13,-1.89,-0.19,9.02
1532.65,-1.8,-0.18,9.03
1533.13,-1.82,-0.16,9.02
1533.42,-2.0,-0.21,9.02
1533.52,-1.95,-0.16,9.01
1533.9,-1.81,-0.16,9.03
1533.52,-1.81,-0.14,9.05
1533.99,-1.92,-0.25,9.0
1534.28,-2.02,-0.29,8.96
1533.8,-1.96,-0.22,8.96
1533.42,-1.83,-0.15,9.02
1534.09,-1.73,-0.16,9.05
1533.71,-1.83,-0.2,9.07
1533.9,-1.93,-0.23,9.0
1534.19,-1.93,-0.24,8.95
1533.61,-1.85,-0.23,8.98
1533.32,-1.81,-0.25,9.01
1534.28,-1.84,-0.21,8.96
1534.38,-1.95,-0.2,8.97
1533.9,-2.0,-0.24,9.05
1533.61,-1.86,-0.19,9.0
1533.9,-1.84,-0.18,8.98
1533.04,-1.87,-0.15,9.12
1533.52,-1.93,-0.22,9.03
1534.28,-1.95,-0.28,9.02
1533.32,-1.92,-0.18,9.0
1534.09,-1.9,-0.22,8.88
1534.28,-1.82,-0.27,9.04
1533.13,-1.92,-0.2,9.01
1533.61,-1.9,-0.22,9.03
1533.42,-1.91,-0.29,9.07
1533.8,-1.9,-0.2,9.02
1533.52,-1.8,-0.23,8.91
1533.71,-1.92,-0.24,9.14
1533.8,-1.92,-0.2,8.98
1533.99,-1.89,-0.2,8.98
1534.19,-1.85,-0.22,8.91
1534.38,-1.86,-0.24,8.99
1533.8,-1.93,-0.22,9.06
1533.04,-1.9,-0.21,8.95
1534.09,-1.88,-0.23,9.05
1534.09,-1.9,-0.18,8.99
1533.9,-1.85,-0.16,9.12
1534.38,-1.95,-0.17,9.09
1533.8,-1.85,-0.19,9.02
1534.19,-1.91,-0.22,8.97
1533.8,-1.91,-0.19,8.95
1534.28,-1.89,-0.19,9.07
1533.99,-1.89,-0.21,9.1
1533.99,-1.89,-0.19,9.11
1533.61,-1.89,-0.21,9.06
1533.9,-1.92,-0.24,8.98
1533.32,-1.96,-0.23,9.0
1534.09,-1.88,-0.19,9.03
1533.42,-1.83,-0.2,9.0
1533.8,-1.87,-0.23,8.97
1533.61,-1.95,-0.21,8.94
1533.8,-1.84,-0.18,9.01
1533.9,-1.87,-0.21,9.0
1533.8,-1.95,-0.2,9.02
1534.09,-1.82,-0.19,9.04
1533.99,-1.94,-0.15,8.95
1533.71,-1.89,-0.19,8.98
1533.99,-1.89,-0.19,8.96
1533.13,-1.9,-0.19,9.04
1533.52,-1.84,-0.17,9.02
1533.61,-1.92,-0.19,9.0
1533.71,-1.9,-0.23,8.98
1533.71,-1.92,-0.18,8.95
1533.61,-1.92,-0.26,9.09
1533.71,-1.83,-0.3,9.02
1533.8,-1.88,-0.14,8.97
1534.19,-1.87,-0.19,9.03
1534.19,-1.85,-0.23,9.04
1533.8,-1.85,-0.23,9.01
1534.09,-1.86,-0.25,8.96
1533.8,-1.94,-0.14,8.93
1533.99,-1.82,-0.26,8.95
1533.9,-1.89,-0.2,9.07
1533.99,-1.85,-0.25,9.01
1533.8,-1.85,-0.2,9.0
1533.71,-1.92,-0.24,9.05
1533.99,-1.95,-0.2,9.0
1533.23,-1.9,-0.18,9.1
1533.99,-1.92,-0.23,9.05
1533.61,-1.9,-0.16,9.05
1533.23,-1.87,-0.15,9.06
1533.71,-1.87,-0.24,9.02
1533.32,-1.86,-0.18,9.09
1533.61,-1.97,-0.2,9.0
1533.71,-1.87,-0.17,9.06
1533.61,-1.86,-0.23,9.11
1534.09,-1.89,-0.21,8.96
1533.99,-1.88,-0.22,9.03
1533.99,-1.81,-0.18,9.14
1533.8,-1.88,-0.21,8.96
1533.99,-1.92,-0.18,9.04
1533.71,-1.93,-0.25,9.0
1534.09,-1.87,-0.22,8.94
1533.42,-1.83,-0.18,9.08
1533.8,-1.88,-0.26,9.03
1534.28,-1.97,-0.21,9.0
1533.71,-1.96,-0.23,9.02
1533.04,-1.92,-0.22,8.96
1532.94,-1.82,-0.23,9.05
1533.13,-1.85,-0.26,8.98
1533.52,-1.9,-0.21,9.01
1533.71,-1.83,-0.15,8.93
1533.71,-1.84,-0.18,9.04
1533.61,-1.86,-0.23,9.07
1534.09,-1.85,-0.19,8.97
1533.52,-1.94,-0.26,9.05
1534.09,-1.87,-0.21,9.02
1533.42,-1.95,-0.2,9.07
1533.9,-1.9,-0.2,9.04
1533.99,-1.86,-0.23,9.0
1533.32,-1.84,-0.23,8.96
1533.61,-1.83,-0.2,9.03
1533.13,-1.92,-0.21,9.0
1533.32,-1.89,-0.23,9.04
1533.42,-1.95,-0.17,9.08
1533.52,-1.87,-0.2,9.03
1533.52,-1.87,-0.18,9.03
1533.8,-1.87,-0.2,9.01
1533.61,-1.97,-0.18,8.99
1533.71,-1.85,-0.25,9.05
1533.61,-1.94,-0.16,9.0
1533.9,-1.81,-0.14,9.02
1533.8,-1.86,-0.16,9.06
1533.52,-1.9,-0.22,9.0
1534.09,-1.94,-0.21,9.04
1533.71,-1.91,-0.25,9.04
1533.32,-1.84,-0.2,9.05
1533.61,-1.89,-0.23,9.06
1533.42,-1.88,-0.21,9.04
1534.47,-1.91,-0.24,8.95
1533.99,-1.95,-0.26,9.01
1533.52,-1.91,-0.23,9.01
1533.61,-1.87,-0.18,8.98
1533.9,-1.86,-0.22,9.01
1533.52,-1.92,-0.19,9.01
1533.04,-1.91,-0.2,9.06
1533.71,-1.83,-0.12,9.06
1533.99,-1.83,-0.22,8.94
1533.8,-1.93,-0.24,9.05
1533.9,-1.96,-0.19,8.95
1533.52,-1.84,-0.22,9.01
1533.8,-1.84,-0.2,8.99
1533.9,-1.87,-0.19,8.92
1533.61,-1.89,-0.23,9.06
1533.61,-1.91,-0.21,8.97
1533.71,-1.88,-0.2,9.05
1533.23,-1.84,-0.14,8.95
1533.52,-1.92,-0.17,9.0
1534.19,-1.94,-0.2,9.07
1533.61,-1.91,-0.19,9.01
1534.09,-1.82,-0.17,9.08
1533.42,-1.88,-0.2,8.99
1533.42,-1.92,-0.19,9.06
1533.9,-1.95,-0.23,9.08
1533.61,-1.9,-0.22,9.0
1533.99,-1.83,-0.17,8.99
1533.99,-1.88,-0.17,9.01
1533.9,-1.85,-0.15,8.98
1533.61,-1.89,-0.17,9.02
1533.99,-1.91,-0.19,8.99
1533.8,-2.0,-0.28,8.92
1533.52,-1.91,-0.26,9.03
1534.28,-1.82,-0.19,9.07
1533.61,-1.89,-0.25,8.99
1534.47,-1.87,-0.2,8.98
1534.09,-1.9,-0.23,8.97
1534.28,-1.85,-0.23,9.01
1534.47,-1.88,-0.21,9.07
1534.28,-1.88,-0.24,9.06
1534.09,-1.88,-0.2,9.03
1533.52,-1.85,-0.23,9.05
1534.19,-1.85,-0.28,9.02
1534.47,-1.98,-0.23,9.1
1533.52,-1.93,-0.2,9.03
1533.8,-1.89,-0.23,9.05
1534.09,-1.83,-0.22,9.06
1533.61,-1.95,-0.27,8.96
1533.52,-1.94,-0.22,8.99
1533.04,-1.9,-0.3,9.02
1533.99,-1.78,-0.15,9.02
1533.9,-1.8,-0.23,9.16
1534.09,-1.9,-0.17,9.02
1533.99,-1.82,-0.2,9.01
1533.99,-1.9,-0.2,9.04
1533.99,-1.92,-0.23,9.11
1533.9,-1.87,-0.24,9.11
1533.42,-1.86,-0.18,9.11
1534.57,-1.83,-0.16,9.02
1534.38,-1.92,-0.19,9.07
1533.99,-1.92,-0.19,9.06
1534.28,-1.94,-0.19,9.0
1533.9,-1.86,-0.19,9.07
1533.9,-1.84,-0.17,9.07
1534.38,-1.89,-0.24,9.0
1534.19,-1.97,-0.23,8.99
1534.38,-1.94,-0.24,9.03
1534.57,-1.86,-0.21,9.06
1534.66,-1.86,-0.21,8.93
1534.19,-1.85,-0.21,9.1
1533.99,-1.91,-0.2,8.99
1534.47,-1.96,-0.22,9.02
1534.38,-1.87,-0.17,9.05
1533.99,-1.8,-0.18,9.06
1534.28,-1.86,-0.19,9.05
1533.99,-1.92,-0.26,9.12
1533.99,-1.91,-0.17,8.99
1534.09,-1.91,-0.26,9.03
1534.19,-1.85,-0.21,9.05
1534.19,-1.87,-0.18,8.99
1534.57,-1.88,-0.22,9.06
1534.19,-1.89,-0.16,9.09
1534.28,-1.91,-0.18,8.96
1534.09,-1.92,-0.2,8.99
1533.9,-1.87,-0.22,9.0
1533.42,-1.87,-0.23,9.05
1534.09,-1.88,-0.29,9.01
1534.66,-1.93,-0.23,9.05
1534.57,-2.02,-0.27,9.04
1534.09,-1.87,-0.26,9.0
1533.99,-1.87,-0.13,9.09
1534.86,-1.59,-0.12,9.07
1533.99,-1.76,-0.19,9.04
1534.28,-1.94,-0.22,9.08
1533.61,-2.04,-0.28,8.91
1534.09,-2.21,-0.27,9.04
1533.42,-1.98,-0.21,8.97
1534.47,-1.76,-0.18,9.06
1533.8,-1.9,-0.21,9.1
1534.19,-1.83,-0.18,9.01
1534.47,-1.93,-0.27,9.01
1534.38,-1.86,-0.23,9.03
1534.47,-1.78,-0.24,8.95
1534.19,-1.8,-0.25,9.12
1534.66,-1.93,-0.17,8.95
1534.57,-1.99,-0.24,8.96
1534.57,-1.93,-0.17,8.96
1534.38,-1.92,-0.23,9.0
1534.47,-1.8,-0.15,9.06
1534.19,-1.84,-0.23,9.02
1534.28,-1.94,-0.24,9.02
1533.9,-1.92,-0.2,9.05
1534.28,-1.87,-0.18,9.02
1534.57,-1.86,-0.13,8.88
1534.28,-1.98,-0.24,9.0
1534.47,-1.88,-0.2,9.08
1534.57,-1.91,-0.22,9.04
1534.38,-1.8,-0.24,9.05
1534.57,-1.8,-0.24,9.01
1534.57,-1.86,-0.19,9.08
1534.47,-1.97,-0.25,8.96
1534.28,-1.92,-0.26,9.02
1534.19,-1.89,-0.18,9.03
1533.99,-1.81,-0.2,9.05
1534.19,-1.91,-0.26,9.06
1534.76,-1.89,-0.26,9.01
1534.19,-1.88,-0.16,9.12
1534.28,-1.92,-0.19,8.99
1534.19,-1.92,-0.18,9.0
1534.38,-1.89,-0.24,9.03
1534.57,-1.88,-0.17,9.0
1534.38,-1.85,-0.21,8.94
1534.38,-1.91,-0.2,8.99
1533.8,-1.9,-0.2,9.02
1534.19,-1.9,-0.2,9.04
1534.09,-1.89,-0.22,9.02
1533.71,-1.82,-0.19,8.97
1533.99,-1.86,-0.24,8.94
1533.71,-1.87,-0.16,9.01
1533.52,-1.89,-0.25,9.0
1533.71,-1.95,-0.24,8.97
1534.47,-1.98,-0.23,8.94
1534.66,-1.87,-0.17,9.05
1534.66,-1.75,-0.23,9.02
1534.28,-1.83,-0.19,8.99
1534.57,-1.75,-0.15,8.97
1534.47,-2.05,-0.24,9.17
1534.38,-2.01,-0.24,8.97
1534.28,-1.92,-0.21,8.94
1534.28,-1.85,-0.16,8.99
1533.71,-1.82,-0.16,9.05
1533.99,-1.97,-0.16,9.03
1534.19,-1.92,-0.23,9.06
1533.61,-1.66,-0.33,9.11
1533.52,-1.85,-0.08,9.06
1533.8,-1.77,-0.28,9.11
1533.52,-1.89,-0.16,9.03
1534.09,-1.91,-0.28,9.06
1533.32,-1.9,-0.22,9.0
1533.9,-1.87,-0.2,8.87
1533.9,-1.71,-0.18,9.04
1533.8,-1.79,-0.22,9.05
1534.28,-1.95,-0.19,9.07
1533.71,-2.0,-0.23,8.95
1533.61,-1.95,-0.26,8.97
1532.75,-1.89,-0.24,9.12
1533.13,-1.73,-0.21,9.07
1533.99,-1.77,-0.16,9.01
1533.9,-1.88,-0.21,9.05
1533.9,-1.97,-0.28,8.94
1533.9,-1.97,-0.23,9.07
1533.42,-1.92,-0.17,8.98
1534.28,-1.86,-0.2,8.97
1533.99,-1.82,-0.23,8.93
1533.9,-1.8,-0.11,9.02
1533.9,-1.97,-0.23,9.03
1533.52,-1.94,-0.18,9.01
1533.42,-1.94,-0.23,9.05
1533.32,-1.83,-0.21,9.0
1533.71,-1.97,-0.23,9.08
1533.9,-1.92,-0.22,9.14
1533.42,-1.89,-0.17,8.84
1533.52,-1.8,-0.16,9.05
1533.99,-1.84,-0.16,9.07
1533.99,-1.87,-0.24,8.95
1533.8,-1.84,-0.2,9.08
1533.99,-1.85,-0.23,9.05
1533.99,-1.96,-0.18,9.1
1534.19,-1.87,-0.17,9.09
1533.9,-1.87,-0.24,9.05
1534.19,-1.81,-0.18,9.04
1534.47,-1.96,-0.23,9.1
1533.99,-1.97,-0.27,8.97
1533.61,-1.88,-0.26,9.03
1534.47,-1.73,-0.21,9.0
1533.99,-1.79,-0.17,9.05
1534.19,-1.99,-0.21,8.92
1533.8,-2.02,-0.3,9.03
1533.99,-1.88,-0.18,8.95
1534.19,-1.79,-0.21,9.03
1533.8,-1.87,-0.18,9.11
1533.71,-1.92,-0.23,8.97
1533.9,-1.92,-0.24,9.01
1533.52,-1.89,-0.23,9.04
1533.32,-1.94,-0.15,9.03
1533.8,-1.87,-0.19,9.04
1534.09,-1.93,-0.19,8.97
1533.99,-1.85,-0.15,9.11
1534.38,-1.78,-0.15,9.06
1533.8,-1.82,-0.19,9.05
1533.52,-1.99,-0.23,9.03
1533.99,-1.97,-0.28,9.0
1533.9,-1.93,-0.18,8.96
1533.8,-1.98,-0.29,9.03
1533.71,-1.85,-0.24,9.05
1534.38,-1.84,-0.23,9.06
1534.09,-1.87,-0.16,9.02
1533.9,-1.91,-0.22,9.07
1534.66,-1.96,-0.16,8.99
1533.99,-1.92,-0.19,9.05
1533.8,-1.87,-0.22,9.04
1533.99,-1.93,-0.28,9.07
1533.8,-1.86,-0.24,9.06
1533.9,-1.76,-0.17,9.08
1534.09,-1.77,-0.2,8.98
1534.28,-2.05,-0.32,8.96
1533.61,-1.93,-0.18,9.1
1533.8,-1.91,-0.19,9.06
1533.9,-1.9,-0.23,9.02
1533.99,-1.85,-0.18,9.08
1533.9,-1.92,-0.28,9.03
1533.61,-1.85,-0.19,8.97
1533.8,-1.96,-0.2,8.98
1533.9,-1.86,-0.21,9.11
1533.99,-1.92,-0.3,8.98
1533.9,-1.87,-0.24,9.02
1534.09,-1.97,-0.23,9.07
1534.09,-1.87,-0.22,9.04
1534.19,-1.79,-0.22,9.05
1534.57,-1.78,-0.21,9.11
1533.99,-1.96,-0.17,9.04
1533.8,-1.97,-0.18,9.1
1534.47,-2.08,-0.18,9.04
1534.09,-1.97,-0.26,8.99
1534.09,-1.81,-0.19,8.99
1533.9,-1.85,-0.2,9.08
1533.61,-1.75,-0.15,9.04
1534.09,-1.82,-0.1,9.0
1534.47,-1.91,-0.21,9.06
1533.8,-1.96,-0.25,9.06
1534.09,-1.93,-0.23,9.0
1534.09,-1.91,-0.24,9.08
1534.09,-1.89,-0.21,9.06
1534.09,-1.87,-0.18,9.01
1533.71,-1.82,-0.21,8.95
1534.47,-1.84,-0.23,9.04
1533.8,-1.97,-0.21,9.0
1534.09,-1.89,-0.28,9.03
1533.9,-1.86,-0.27,9.07
1534.09,-1.73,-0.28,9.28
1533.99,-1.99,-0.12,9.13
1533.61,-1.92,-0.21,8.99
1533.9,-1.95,-0.16,8.96
1534.19,-1.88,-0.25,9.07
1533.8,-1.81,-0.21,9.05
1533.8,-1.84,-0.16,9.0
1534.09,-1.91,-0.22,9.15
1534.09,-1.87,-0.21,9.06
1533.9,-1.89,-0.21,9.07
1534.47,-2.02,-0.22,9.08
1534.38,-1.97,-0.27,9.0
1534.66,-1.84,-0.25,8.88
1534.38,-1.84,-0.23,9.03
1534.57,-1.86,-0.22,9.01
1534.28,-1.84,-0.23,9.05
1533.99,-1.98,-0.25,8.98
1533.9,-1.92,-0.2,9.0
1534.19,-1.88,-0.21,9.09
1534.09,-1.76,-0.23,9.04
1534.38,-1.53,-0.24,9.11
1533.99,-2.14,-0.24,9.16
1534.19,-1.84,-0.16,8.83
1534.38,-1.9,-0.31,9.17
1534.38,-1.74,-0.13,9.06
1534.19,-1.8,-0.27,9.04
1534.09,-1.9,-0.14,8.97
1534.57,-2.0,-0.2,8.99
1534.95,-1.9,-0.28,9.02
1534.66,-1.83,-0.17,9.11
1534.47,-1.77,-0.21,9.04
1534.86,-1.92,-0.24,9.05
1534.47,-1.94,-0.19,9.03
1534.57,-1.95,-0.22,8.92
1534.47,-1.78,-0.14,9.03
1534.38,-1.88,-0.13,9.06
1534.76,-1.92,-0.28,9.03
1534.66,-2.01,-0.22,9.01
1534.57,-1.99,-0.18,9.04
1534.38,-1.86,-0.17,9.03
1534.57,-1.79,-0.2,9.03
1534.47,-1.82,-0.23,9.03
1534.28,-1.93,-0.2,8.96
1534.66,-1.99,-0.25,9.02
1534.38,-1.93,-0.24,8.95
1534.57,-1.83,-0.17,9.06
1534.66,-1.84,-0.12,9.05
1534.95,-1.92,-0.23,8.97
1534.19,-1.95,-0.19,8.96
1534.57,-1.91,-0.17,9.05
1534.19,-1.83,-0.19,9.03
1534.38,-1.85,-0.18,9.05
1534.19,-1.89,-0.22,9.05
1534.19,-1.87,-0.22,9.01
1533.99,-1.93,-0.18,9.13
1533.99,-1.98,-0.22,8.98
1533.99,-1.87,-0.26,9.04
1534.28,-1.81,-0.22,9.11
1534.09,-1.79,-0.17,8.98
1533.61,-1.77,-0.2,8.98
1533.99,-1.95,-0.19,9.09
1533.9,-2.01,-0.21,8.96
1533.9,-1.88,-0.25,9.05
1533.61,-1.85,-0.16,9.02
1534.28,-1.8,-0.23,9.03
1534.95,-1.92,-0.26,8.98
1534.28,-1.87,-0.26,9.04
1533.99,-1.99,-0.15,9.01
1534.19,-1.86,-0.17,9.07
1534.28,-1.9,-0.24,8.98
1534.38,-1.87,-0.2,9.01
1534.28,-1.89,-0.24,9.1
1533.99,-1.86,-0.2,9.0
1534.19,-1.89,-0.18,9.01
1534.19,-1.94,-0.2,9.03
1534.38,-1.92,-0.25,8.99
1534.38,-1.78,-0.22,8.89
1534.28,-1.86,-0.25,9.04
1534.28,-1.85,-0.24,9.02
1534.38,-1.92,-0.23,9.04
1534.38,-1.86,-0.16,9.03
1534.38,-1.86,-0.18,8.99
1534.09,-1.81,-0.15,9.08
1534.28,-1.87,-0.2,9.03
1534.19,-1.89,-0.2,9.02
1533.8,-1.86,-0.22,8.98
1534.38,-1.82,-0.21,8.98
1534.57,-1.82,-0.18,9.1
1534.19,-1.9,-0.16,9.02
1533.99,-1.97,-0.15,9.01
1534.28,-1.95,-0.24,9.07
1534.47,-1.94,-0.23,9.03
1534.66,-1.85,-0.16,9.07
1534.66,-1.86,-0.18,9.11
1534.86,-1.97,-0.18,8.96
1534.66,-1.91,-0.24,9.09
1534.38,-1.88,-0.19,9.05
1534.38,-1.87,-0.26,8.93
1534.66,-1.81,-0.18,9.12
1534.19,-1.87,-0.23,9.1
1534.66,-1.87,-0.15,9.04
1534.28,-1.88,-0.2,9.06
1534.47,-1.92,-0.2,8.96
1534.76,-1.96,-0.24,9.03
1534.47,-1.86,-0.14,9.03
1534.66,-1.83,-0.18,9.03
1534.57,-1.92,-0.19,8.99
1534.28,-1.97,-0.26,9.05
1534.38,-2.0,-0.24,8.99
1533.99,-1.9,-0.23,9.09
1534.28,-1.79,-0.14,9.03
1534.38,-1.8,-0.18,9.18
1534.28,-1.92,-0.23,9.01
1534.28,-2.0,-0.22,9.02
1534.47,-2.07,-0.29,8.78
1533.61,-1.86,-0.21,9.09
1534.57,-1.91,-0.23,8.96
1534.28,-1.83,-0.14,9.1
1534.19,-1.83,-0.17,9.05
1534.57,-1.86,-0.25,9.06
1534.38,-1.96,-0.24,8.92
1534.47,-1.95,-0.27,8.98
1534.28,-1.84,-0.23,9.08
1534.57,-1.82,-0.19,9.08
1534.57,-1.83,-0.26,9.04
1534.57,-1.9,-0.21,9.0
1534.38,-1.84,-0.21,8.99
1534.19,-1.9,-0.13,8.96
1534.28,-1.87,-0.18,9.0
1534.38,-1.96,-0.23,9.06
1534.19,-1.9,-0.26,9.0
1534.57,-1.86,-0.18,9.0
1534.19,-1.83,-0.19,9.05
1534.09,-1.86,-0.25,9.0
1534.28,-1.92,-0.18,9.08
1534.19,-1.97,-0.2,9.02
1534.28,-1.86,-0.18,9.07
1534.19,-1.88,-0.2,9.05
1534.19,-1.89,-0.16,9.02
1534.09,-1.84,-0.19,9.01
1534.28,-1.88,-0.16,8.94
1534.19,-1.92,-0.16,8.98
1534.19,-1.87,-0.2,9.1
1535.05,-1.88,-0.19,8.89
1534.76,-1.91,-0.19,8.98
1534.66,-1.9,-0.19,9.07
1534.57,-1.91,-0.21,8.99
1534.28,-1.86,-0.23,9.04
1534.09,-1.94,-0.24,8.98
1533.52,-1.88,-0.25,9.07
1534.28,-1.91,-0.25,9.04
1534.95,-1.92,-0.18,9.1
1534.28,-1.88,-0.24,8.99
1534.66,-1.82,-0.2,9.12
1534.57,-1.81,-0.18,9.11
1535.05,-1.95,-0.22,8.95
1533.99,-2.01,-0.2,8.97
1534.09,-1.98,-0.21,9.05
1534.76,-1.88,-0.23,9.02
1534.76,-1.8,-0.21,9.07
1534.66,-1.71,-0.17,8.96
1534.66,-1.87,-0.18,9.07
1533.71,-1.97,-0.23,9.0
1534.19,-1.98,-0.26,8.99
1534.19,-1.93,-0.2,9.0
1534.28,-1.76,-0.18,8.99
1533.99,-1.82,-0.19,9.06
1534.57,-1.87,-0.14,9.08
1534.28,-1.97,-0.25,8.85
1534.47,-1.98,-0.24,9.05
1534.57,-1.81,-0.22,9.22
1534.57,-1.72,-0.15,9.13
1534.28,-1.86,-0.25,9.04
1534.28,-1.98,-0.18,9.05
1534.66,-1.98,-0.17,8.97
1533.9,-1.89,-0.2,9.04
1534.66,-1.88,-0.25,9.04
1534.57,-1.86,-0.19,8.99
1534.19,-1.87,-0.29,9.04
1533.99,-1.86,-0.17,9.0
1533.9,-1.87,-0.21,9.09
1533.9,-1.93,-0.19,8.93
1533.9,-1.91,-0.25,9.0
1534.28,-1.92,-0.16,9.04
1533.9,-1.94,-0.22,9.02
1533.9,-1.84,-0.23,9.06
1534.38,-1.8,-0.22,9.01
1534.28,-1.86,-0.16,8.99
1534.09,-1.95,-0.21,8.99
1534.19,-1.94,-0.21,9.01
1533.99,-1.85,-0.21,9.1
1534.28,-1.87,-0.22,9.12
1534.47,-1.86,-0.19,9.05
1534.19,-1.89,-0.24,9.01
1533.8,-1.95,-0.24,9.02
1534.47,-1.92,-0.23,9.04
1533.52,-1.87,-0.21,9.05
1534.57,-1.91,-0.21,9.08
1534.66,-1.91,-0.17,9.08
1534.57,-1.94,-0.23,9.07
1534.66,-1.95,-0.19,8.99
1533.8,-1.87,-0.22,9.05
1533.42,-1.81,-0.19,9.0
1533.61,-1.85,-0.24,8.98
1533.99,-1.89,-0.2,8.99
1533.99,-1.83,-0.2,9.05
1534.57,-1.87,-0.17,8.95
1534.47,-2.06,-0.2,9.05
1534.28,-1.96,-0.25,8.94
1534.28,-1.91,-0.29,8.99
1533.99,-1.72,-0.17,9.0
1533.9,-1.84,-0.24,8.96
1534.28,-1.83,-0.2,9.13
1533.9,-1.91,-0.17,8.98
1533.71,-1.86,-0.24,8.95
1533.99,-1.98,-0.2,9.03
1534.28,-1.88,-0.17,9.01
1533.9,-1.89,-0.22,8.99
1533.9,-1.88,-0.18,8.95
1534.19,-1.91,-0.19,8.86
1533.99,-1.91,-0.19,9.05
1533.99,-1.98,-0.23,8.99
1533.9,-1.88,-0.2,9.05
1533.9,-1.78,-0.23,9.0
1533.71,-1.89,-0.19,9.05
1533.42,-1.95,-0.2,8.98
1533.61,-2.05,-0.19,9.1
1533.61,-1.92,-0.21,8.98
1533.71,-1.78,-0.19,9.0
1533.9,-1.85,-0.23,9.08
1533.99,-1.88,-0.18,9.0
1534.09,-2.01,-0.3,8.95
1533.61,-1.95,-0.22,8.94
1533.9,-1.86,-0.23,8.97
1534.09,-1.92,-0.21,8.96
1534.28,-1.89,-0.22,9.05
1533.99,-1.89,-0.24,9.07
1533.9,-1.95,-0.21,9.02
1534.19,-1.84,-0.17,9.03
1533.71,-1.77,-0.2,9.05
1534.28,-1.88,-0.22,8.99
1533.61,-1.9,-0.27,8.97
1533.8,-1.96,-0.28,8.96
1533.23,-1.87,-0.19,9.02
1533.61,-1.9,-0.2,9.05
1533.99,-1.85,-0.17,8.95
1534.19,-1.89,-0.19,9.03
1533.99,-1.98,-0.26,9.08
1534.28,-1.92,-0.19,9.06
1533.9,-1.77,-0.13,9.13
1533.9,-1.79,-0.21,9.04
1533.99,-1.89,-0.17,9.03
1534.09,-1.98,-0.25,8.95
1534.19,-1.95,-0.18,9.01
1533.9,-1.81,-0.2,9.01
1534.57,-1.91,-0.17,9.09
1534.19,-1.9,-0.21,9.01
1534.09,-1.92,-0.24,9.05
1534.09,-1.87,-0.28,9.01
1534.28,-1.85,-0.21,9.09
1533.8,-1.67,-0.17,9.11
1533.71,-1.88,-0.2,8.95
1534.09,-2.04,-0.23,9.02
1533.9,-2.0,-0.24,8.97
1534.47,-1.84,-0.26,9.13
1533.99,-1.65,-0.14,9.09
1534.38,-1.78,-0.17,8.99
1533.99,-2.03,-0.29,8.93
1533.99,-2.15,-0.28,8.98
1534.47,-1.94,-0.23,9.05
1533.99,-1.76,-0.1,9.02
1534.47,-1.73,-0.22,9.03
1534.19,-1.86,-0.14,9.12
1534.28,-2.03,-0.29,9.01
1534.19,-1.98,-0.27,8.9
1534.57,-1.8,-0.24,9.1
1534.47,-1.74,-0.21,9.06
1534.19,-1.9,-0.25,9.02
1533.8,-1.97,-0.19,9.02
1534.66,-1.91,-0.2,9.04
1533.99,-1.75,-0.21,9.02
1534.38,-1.79,-0.17,9.05
1534.76,-1.94,-0.21,9.06
1534.19,-1.96,-0.22,9.05
1534.86,-1.94,-0.21,8.97
1534.47,-1.88,-0.22,9.04
1535.14,-1.83,-0.21,9.06
1534.76,-1.88,-0.16,9.09
1534.28,-1.96,-0.17,9.02
1534.66,-1.95,-0.21,9.05
1534.95,-1.89,-0.23,8.96
1534.28,-1.83,-0.26,9.01
1534.57,-1.79,-0.24,9.03
1534.28,-1.85,-0.21,9.03
1534.28,-1.95,-0.22,8.92
1534.95,-1.93,-0.23,8.99
1534.38,-1.89,-0.15,8.96
1534.57,-1.83,-0.15,9.09
1534.47,-1.83,-0.19,8.98
1534.28,-1.91,-0.19,9.12
1534.47,-2.0,-0.26,9.03
1535.14,-1.96,-0.19,9.05
1534.28,-1.88,-0.21,8.98
1534.28,-1.81,-0.2,8.98
1534.47,-1.84,-0.23,9.16
1534.47,-2.01,-0.25,8.94
1534.66,-1.97,-0.18,9.1
1534.57,-1.8,-0.19,9.08
1534.66,-1.82,-0.19,9.01
1534.66,-1.94,-0.2,8.93
1534.66,-2.03,-0.23,8.96
1534.86,-1.9,-0.2,9.06
1534.76,-1.86,-0.18,8.95
1534.38,-1.72,-0.21,9.09
1534.38,-1.9,-0.22,9.08
1534.47,-2.01,-0.28,9.05
1534.57,-2.05,-0.2,9.06
1534.76,-1.9,-0.21,8.96
1534.66,-1.85,-0.18,9.09
1534.76,-1.85,-0.17,8.91
1534.57,-2.09,-0.68,8.31
1534.86,-1.73,-0.24,8.96
1534.66,-1.95,-0.19,8.92
1535.14,-1.8,-0.16,8.89
1534.66,-1.68,-0.19,9.21
1534.95,-1.83,-0.17,9.08
1534.95,-1.95,-0.26,9.05
1533.9,-1.9,-0.26,9.03
1534.66,-1.93,-0.18,8.93
1534.38,-1.84,-0.19,9.09
1534.86,-1.95,-0.11,9.02
1534.95,-1.91,-0.23,8.97
1534.86,-1.92,-0.21,8.99
1534.66,-1.94,-0.21,8.96
1534.38,-1.9,-0.23,9.07
1534.86,-1.99,-0.22,9.14
1534.76,-1.9,-0.18,9.01
1535.14,-1.91,-0.23,9.04
1534.95,-1.84,-0.22,9.08
1535.43,-1.87,-0.19,9.08
1535.14,-1.88,-0.21,9.09
1535.33,-1.9,-0.2,9.07
1534.86,-1.86,-0.23,8.97
1534.38,-1.91,-0.19,9.05
1534.19,-2.01,-0.24,9.05
1534.66,-1.92,-0.2,9.02
1534.19,-1.79,-0.19,9.01
1535.05,-1.81,-0.18,9.15
1534.38,-1.87,-0.19,9.07
1534.38,-1.94,-0.2,9.09
1534.47,-1.98,-0.25,8.98
1533.8,-1.93,-0.16,8.98
1533.99,-1.77,-0.23,9.04
1534.66,-1.82,-0.18,9.0
1534.28,-1.9,-0.17,9.14
1534.38,-1.86,-0.27,8.98
1535.33,-2.05,-0.18,9.01
1535.33,-1.86,-0.21,8.99
1534.66,-1.75,-0.2,9.11
1535.24,-1.81,-0.24,8.98
1534.57,-1.97,-0.21,8.96
1534.66,-1.97,-0.17,9.07
1534.09,-1.89,-0.22,8.96
1534.38,-1.77,-0.24,9.06
1534.57,-1.91,-0.21,9.04
1535.14,-1.91,-0.23,9.09
1534.66,-1.92,-0.22,8.98
1534.86,-1.89,-0.23,9.02
1535.05,-1.88,-0.19,9.08
1534.19,-1.86,-0.14,9.03
1534.76,-1.91,-0.25,9.0
1534.47,-1.89,-0.21,8.94
1534.76,-1.85,-0.24,8.99
1533.99,-1.84,-0.22,9.06
1534.76,-1.83,-0.22,9.04
1535.05,-1.97,-0.18,8.97
1534.95,-1.89,-0.23,9.03
1535.05,-1.84,-0.2,9.09
1534.76,-1.85,-0.24,9.02
1534.57,-1.91,-0.24,8.97
1534.57,-1.9,-0.25,9.0
1534.19,-1.96,-0.18,9.08
1534.86,-1.91,-0.22,9.02
1535.05,-1.85,-0.23,9.01
1535.14,-1.9,-0.2,9.0
1534.76,-1.97,-0.22,9.0
1535.05,-1.92,-0.22,8.97
1534.76,-1.92,-0.25,8.93
1534.47,-1.8,-0.16,9.06
1534.76,-1.82,-0.19,9.03
1534.57,-1.86,-0.19,9.0
1534.47,-1.95,-0.2,9.09
1534.66,-1.92,-0.21,9.08
1534.86,-1.89,-0.2,8.99
1534.47,-1.84,-0.22,9.13
1534.57,-1.92,-0.18,9.07
1534.86,-1.88,-0.23,9.02
1534.57,-1.86,-0.21,9.06
1534.95,-1.86,-0.2,9.0
1535.05,-1.86,-0.21,8.99
1535.24,-1.87,-0.18,9.0
1534.76,-1.96,-0.16,9.02
1534.76,-1.97,-0.2,9.0
1534.86,-1.9,-0.25,9.01
1534.47,-1.92,-0.16,9.11
1534.86,-1.88,-0.16,9.05
1534.28,-1.9,-0.19,9.03
1535.14,-1.86,-0.23,9.1
1534.66,-1.9,-0.28,9.0
1534.66,-1.91,-0.2,9.07
1534.76,-1.91,-0.23,9.04
1534.86,-1.82,-0.25,8.96
1534.95,-1.89,-0.21,9.0
1534.76,-1.86,-0.17,9.02
1534.95,-1.9,-0.23,9.03
1534.95,-1.86,-0.19,9.07
1535.05,-1.89,-0.19,9.01
1535.05,-1.9,-0.18,9.01
1534.86,-1.89,-0.17,9.05
1534.95,-1.9,-0.15,9.04
1535.14,-1.87,-0.2,9.1
1534.66,-1.9,-0.21,9.09
1534.95,-1.9,-0.21,9.04
1534.86,-1.92,-0.18,9.11
1535.05,-1.87,-0.18,9.04
1534.86,-1.86,-0.2,9.04
1534.95,-1.83,-0.14,8.95
1534.95,-1.87,-0.21,9.0
1534.76,-1.93,-0.19,9.06
1535.24,-1.93,-0.27,9.1
1535.24,-1.89,-0.24,8.98
1534.95,-1.81,-0.19,9.01
1535.62,-1.92,-0.24,8.94
1535.33,-1.9,-0.23,9.0
1535.33,-1.85,-0.23,9.02
1535.05,-1.92,-0.14,9.07
1534.76,-1.89,-0.2,9.0
1535.33,-1.92,-0.23,8.97
1534.66,-1.87,-0.19,9.03
1535.24,-1.94,-0.17,9.05
1534.76,-1.91,-0.19,9.01
1534.38,-1.9,-0.27,9.0
1535.14,-1.87,-0.27,8.99
1534.57,-1.96,-0.24,8.99
1534.38,-1.93,-0.23,9.06
1534.86,-1.85,-0.18,9.04
1534.47,-1.86,-0.11,8.99
1534.95,-1.88,-0.16,9.03
1535.14,-1.9,-0.23,9.0
1535.14,-1.87,-0.22,9.03
1535.05,-1.86,-0.24,9.05
1534.57,-1.82,-0.23,9.03
1535.14,-1.94,-0.19,9.03
1535.05,-1.93,-0.21,9.08
1534.95,-1.93,-0.19,8.95
1534.86,-1.9,-0.22,9.01
1535.05,-1.85,-0.17,8.96
1534.95,-1.86,-0.2,9.05
1534.47,-1.94,-0.2,8.91
1534.95,-1.93,-0.17,9.02
1535.24,-1.87,-0.19,8.92
1534.95,-1.78,-0.21,9.0
1535.05,-1.96,-0.21,9.01
1535.05,-1.98,-0.19,9.09
1534.66,-1.93,-0.25,8.92
1533.99,-1.88,-0.21,9.06
1534.57,-1.85,-0.22,8.98
1534.76,-1.85,-0.28,9.03
1534.95,-1.85,-0.2,9.01
1534.76,-1.88,-0.28,9.01
1534.95,-1.92,-0.23,8.99
1535.43,-1.98,-0.19,9.07
1535.05,-1.85,-0.2,9.04
1535.43,-1.94,-0.19,9.03
1534.76,-1.88,-0.22,9.04
1535.24,-1.8,-0.22,9.05
1534.95,-1.96,-0.29,9.11
1535.14,-1.93,-0.21,9.0
1534.76,-2.02,-0.23,9.09
1534.19,-1.81,-0.19,9.06
1535.33,-1.87,-0.22,9.03
1534.86,-1.88,-0.21,9.04
1534.57,-2.0,-0.25,9.05
1534.76,-1.96,-0.26,9.0
1534.95,-1.92,-0.17,8.91
1534.86,-1.82,-0.18,9.08
1535.52,-1.84,-0.18,8.97
1535.05,-1.89,-0.22,9.01
1534.95,-1.92,-0.26,9.05
1534.66,-1.9,-0.22,9.05
1534.76,-1.81,-0.17,9.0
1534.95,-1.85,-0.22,9.09
1533.99,-1.88,-0.26,8.95
1534.28,-1.93,-0.2,9.0
1534.19,-1.89,-0.2,9.1
1535.14,-1.86,-0.24,9.06
1534.66,-1.88,-0.25,9.01
1535.14,-1.8,-0.23,9.05
1534.76,-2.01,-0.23,9.06
1535.14,-1.87,-0.21,9.02
1534.76,-1.77,-0.18,8.96
1534.76,-1.8,-0.15,9.14
1534.66,-1.94,-0.19,8.99
1534.38,-2.05,-0.24,8.98
1534.38,-1.96,-0.23,9.0
1534.76,-1.79,-0.21,8.93
1534.57,-1.73,-0.22,9.11
1535.05,-1.89,-0.19,9.0
1534.95,-1.96,-0.24,9.03
1535.14,-1.94,-0.24,8.9
1534.66,-1.86,-0.16,9.05
1533.99,-1.83,-0.18,8.99
1534.09,-1.84,-0.23,9.09
1533.9,-1.98,-0.17,9.07
1534.09,-1.92,-0.24,9.05
1533.99,-1.92,-0.19,9.0
1534.57,-1.83,-0.22,9.02
1534.66,-1.91,-0.22,9.0
1534.95,-1.99,-0.21,8.96
1534.57,-1.93,-0.25,8.97
1534.57,-1.81,-0.19,8.92
1534.57,-1.78,-0.16,9.01
1534.57,-1.75,-0.2,9.06
1534.57,-1.97,-0.23,9.02
1534.57,-1.91,-0.19,9.07
1534.47,-1.91,-0.26,9.02
1534.38,-1.76,-0.19,9.05
1534.28,-1.81,-0.2,8.96
1534.57,-1.93,-0.24,9.1
1534.09,-2.0,-0.21,9.0
1534.57,-1.87,-0.2,9.03
1534.76,-1.87,-0.21,9.02
1534.66,-1.92,-0.23,9.06
1534.76,-1.89,-0.22,8.98
1534.66,-1.93,-0.25,9.05
1534.38,-1.93,-0.27,9.05
1534.66,-1.78,-0.2,9.02
1534.28,-1.85,-0.24,9.01
1534.28,-1.87,-0.23,9.03
1534.38,-1.91,-0.18,9.03
1534.47,-1.88,-0.17,9.02
1534.19,-1.98,-0.2,9.08
1534.57,-1.83,-0.2,9.0
1534.66,-1.87,-0.23,9.03
1534.66,-1.93,-0.26,9.0
1534.19,-1.88,-0.21,9.1
1534.47,-1.97,-0.24,9.0
1534.57,-1.86,-0.26,8.97
1534.76,-1.8,-0.18,8.98
1534.47,-1.87,-0.22,9.07
1535.33,-1.86,-0.22,9.1
1535.14,-1.99,-0.24,8.98
1535.14,-1.94,-0.26,8.92
1534.86,-1.79,-0.14,9.02
1534.09,-1.81,-0.14,9.01
1535.14,-1.75,-0.24,9.14
1534.38,-1.85,-0.15,9.11
1534.38,-2.04,-0.23,9.05
1534.47,-1.97,-0.24,9.03
1534.86,-1.77,-0.17,9.01
1534.57,-1.78,-0.2,9.06
1534.47,-1.94,-0.24,9.03
1534.76,-2.03,-0.22,9.01
1534.38,-1.93,-0.24,8.97
1534.76,-1.81,-0.15,9.02
1535.14,-1.84,-0.21,9.1
1534.47,-1.84,-0.22,9.04
1534.95,-1.91,-0.25,8.96
1534.66,-1.89,-0.23,9.09
1535.14,-1.89,-0.18,9.04
1534.76,-1.88,-0.21,9.07
1535.05,-1.81,-0.19,9.06
1534.66,-1.94,-0.19,9.05
1534.09,-1.88,-0.23,9.09
1534.38,-1.91,-0.2,9.01
1534.38,-1.9,-0.27,9.03
1534.09,-1.9,-0.21,9.0
1534.57,-1.88,-0.2,9.05
1534.57,-1.88,-0.17,9.04
1534.57,-1.86,-0.19,9.06
1534.47,-1.89,-0.22,8.98
1534.57,-1.85,-0.23,9.09
1534.57,-1.99,-0.21,9.05
1534.57,-1.89,-0.25,8.97
1534.66,-1.89,-0.22,9.05
1534.47,-1.92,-0.19,9.03
1534.57,-1.9,-0.19,8.97
1534.66,-1.87,-0.18,9.0
1534.57,-1.86,-0.18,8.99
1534.38,-1.85,-0.16,9.02
1534.38,-1.9,-0.23,8.95
1534.19,-1.9,-0.18,8.99
1534.38,-1.91,-0.22,9.08
1535.05,-1.87,-0.26,9.13
1534.38,-1.78,-0.2,9.02
1534.95,-1.91,-0.2,9.13
1534.38,-1.91,-0.15,8.99
1534.57,-1.94,-0.25,8.95
1534.47,-1.86,-0.19,8.95
1534.66,-1.89,-0.24,9.02
1533.9,-1.84,-0.25,8.94
1535.33,-1.91,-0.23,8.9
1534.57,-1.97,-0.21,9.0
1534.47,-1.92,-0.22,8.99
1534.28,-1.92,-0.17,9.01
1534.47,-1.83,-0.18,8.98
1534.19,-1.8,-0.19,9.0
1534.47,-1.92,-0.23,9.01
1534.38,-1.94,-0.2,8.99
1534.38,-1.89,-0.2,9.03
1534.28,-1.77,-0.2,9.04
1534.19,-1.9,-0.21,9.04
1534.38,-1.92,-0.17,9.06
1534.47,-1.92,-0.17,9.01
1534.66,-1.91,-0.22,8.96
1534.86,-1.87,-0.22,9.06
1534.76,-1.89,-0.2,9.01
1534.19,-1.91,-0.16,9.01
1534.28,-1.91,-0.23,9.0
1534.86,-1.9,-0.25,9.03
1534.76,-1.83,-0.25,9.09
1534.66,-1.95,-0.2,9.02
1534.28,-1.87,-0.18,9.07
1534.38,-1.83,-0.17,9.07
1534.86,-1.89,-0.23,8.99
1534.38,-1.89,-0.19,9.0
1534.47,-1.87,-0.22,9.02
1535.43,-1.89,-0.19,9.06
1534.28,-1.89,-0.25,9.03
1535.05,-1.89,-0.18,8.94
1534.66,-1.83,-0.24,9.05
1534.95,-1.86,-0.23,9.06
1534.38,-1.88,-0.22,9.02
1535.05,-1.86,-0.22,9.01
1535.24,-1.87,-0.18,9.06
1534.38,-1.95,-0.21,9.05
1534.66,-1.97,-0.23,9.04
1534.38,-1.9,-0.22,9.02
1534.76,-1.86,-0.18,9.06
1534.76,-1.89,-0.23,9.04
1534.76,-1.94,-0.24,9.05
1534.95,-1.81,-0.17,9.01
1534.76,-1.91,-0.16,8.96
1534.09,-1.79,-0.17,9.05
1534.47,-1.91,-0.22,9.04
1533.71,-1.89,-0.22,9.03
1533.42,-1.85,-0.19,9.11
1534.09,-1.83,-0.2,9.0
1534.09,-1.87,-0.21,9.03
1534.09,-1.96,-0.23,9.01
1534.57,-1.98,-0.2,9.11
1534.47,-1.85,-0.2,9.03
1534.86,-1.79,-0.17,8.97
1534.38,-1.94,-0.26,8.99
1534.86,-1.99,-0.25,9.15
1534.19,-1.89,-0.2,9.16
1534.47,-1.89,-0.2,9.05
1534.47,-1.84,-0.22,9.06
1534.38,-1.97,-0.26,9.01
1533.32,-1.94,-0.2,9.05
1533.99,-1.93,-0.23,9.04
1534.09,-1.9,-0.25,8.99
1534.86,-1.83,-0.24,9.0
1534.47,-1.87,-0.2,9.05
1534.76,-1.87,-0.21,9.06
1534.76,-1.85,-0.23,8.99
1534.28,-1.94,-0.19,9.05
1534.86,-1.88,-0.22,9.05
1534.66,-1.87,-0.19,9.11
1533.9,-1.84,-0.19,9.11
1534.09,-1.94,-0.21,9.05
1534.28,-1.92,-0.2,8.92
1534.09,-1.85,-0.2,8.96
1534.57,-1.89,-0.3,9.0
1534.38,-1.84,-0.22,9.07
1534.19,-1.93,-0.27,9.05
1534.47,-1.92,-0.29,8.99
1535.05,-1.93,-0.24,9.0
1534.76,-1.82,-0.13,9.0
1534.86,-1.82,-0.19,9.08
1534.66,-1.84,-0.24,8.96
1534.47,-1.98,-0.23,9.02
1534.09,-1.94,-0.21,9.01
1534.47,-1.9,-0.25,9.1
1533.99,-1.79,-0.28,8.97
1535.24,-1.88,-0.19,8.98
1534.86,-1.96,-0.2,9.04
1534.57,-1.86,-0.25,9.01
1534.57,-1.86,-0.23,8.98
1534.57,-1.88,-0.18,9.07
1534.76,-1.91,-0.2,9.03
1534.76,-1.97,-0.16,9.05
1534.86,-1.82,-0.2,8.97
1533.9,-1.91,-0.25,8.93
1533.52,-1.79,-0.2,9.05
1534.28,-1.85,-0.18,9.01
1534.57,-1.96,-0.2,8.98
1533.99,-1.93,-0.23,9.03
1534.86,-1.93,-0.22,9.03
1534.28,-1.91,-0.19,9.11
1534.28,-1.85,-0.23,8.99
1534.09,-1.89,-0.24,8.98
1534.86,-1.95,-0.19,9.0
1534.66,-1.86,-0.15,9.0
1534.19,-1.83,-0.16,9.05
1535.24,-1.85,-0.18,8.91
1534.66,-1.87,-0.21,8.95
1534.95,-1.9,-0.25,8.96
1534.57,-1.94,-0.17,8.98
1534.86,-1.87,-0.15,8.97
1534.66,-1.91,-0.19,9.01
1534.66,-1.9,-0.24,9.03
1534.57,-1.87,-0.19,9.11
1534.86,-1.88,-0.2,9.09
1534.47,-1.89,-0.16,9.01
1534.38,-1.9,-0.22,8.94
1534.57,-1.85,-0.22,9.09
1534.19,-1.9,-0.23,9.02
1535.05,-1.88,-0.24,8.97
1534.57,-1.91,-0.25,8.96
1534.09,-1.9,-0.23,9.0
1533.99,-1.84,-0.25,9.08
1534.47,-1.88,-0.22,9.04
1534.19,-1.91,-0.13,9.09
1533.52,-1.88,-0.23,9.01
1534.76,-1.95,-0.23,8.98
1533.99,-1.89,-0.17,9.14
1534.76,-1.9,-0.27,9.13
1534.09,-1.86,-0.23,9.01
1534.38,-1.87,-0.2,9.02
1534.66,-1.87,-0.18,9.04
1534.28,-1.78,-0.2,9.09
1534.38,-1.88,-0.24,8.93
1534.57,-1.87,-0.29,8.99
1534.09,-1.93,-0.22,9.01
1534.28,-1.89,-0.18,8.97
1534.86,-1.9,-0.23,9.01
1534.76,-1.89,-0.21,8.99
1534.38,-1.88,-0.2,9.04
1534.57,-1.87,-0.26,9.09
1534.57,-1.88,-0.21,9.03
1534.66,-1.88,-0.23,9.07
1534.57,-1.98,-0.16,8.98
1534.66,-1.86,-0.18,9.03
1534.66,-1.96,-0.29,9.06
1534.19,-1.9,-0.26,9.04
1534.19,-1.88,-0.17,9.03
1534.57,-1.86,-0.24,9.06
1534.09,-1.92,-0.14,9.05
1533.9,-1.94,-0.2,9.01
1534.28,-1.92,-0.18,9.03
1534.57,-1.87,-0.25,9.0
1534.47,-1.88,-0.23,9.04
1534.57,-1.87,-0.24,9.04
1534.95,-1.87,-0.23,8.96
1534.86,-1.93,-0.22,9.11
1534.57,-1.84,-0.2,9.14
1534.76,-1.81,-0.15,9.02
1534.66,-1.91,-0.15,9.0
1534.57,-1.93,-0.21,9.05
1534.38,-1.91,-0.2,9.0
1534.57,-1.92,-0.19,9.06
1534.76,-1.87,-0.23,9.04
1534.57,-1.84,-0.21,9.03
1534.57,-1.83,-0.25,9.08
1534.66,-1.91,-0.21,8.96
1534.47,-1.89,-0.19,8.99
1534.57,-1.85,-0.18,8.98
1534.66,-1.89,-0.28,9.03
1534.86,-1.9,-0.19,9.02
1534.47,-1.94,-0.2,8.97
1534.66,-1.9,-0.24,9.02
1534.66,-1.88,-0.21,9.1
1534.76,-1.87,-0.19,8.96
1534.38,-1.91,-0.22,9.07
1534.28,-1.92,-0.19,9.02
1534.57,-1.87,-0.25,8.99
1534.57,-1.82,-0.2,9.04
1534.09,-1.79,-0.21,9.12
1534.19,-2.11,-0.26,9.03
1533.61,-2.02,-0.3,8.86
1534.28,-1.92,-0.21,9.14
1534.57,-2.05,-0.23,9.05
1534.47,-1.89,-0.22,8.98
1534.57,-1.59,-0.06,9.08
1534.57,-1.67,-0.17,8.97
1534.57,-2.32,-0.33,9.1
1534.57,-2.02,-0.24,9.02
1534.38,-1.6,-0.13,9.07
1534.66,-1.7,-0.16,9.07
1534.47,-1.99,-0.29,8.96
1533.9,-2.18,-0.3,8.94
1534.66,-2.05,-0.27,8.92
1534.09,-1.74,-0.19,9.11
1534.86,-1.68,-0.16,9.09
1534.57,-1.83,-0.15,9.05
1534.19,-2.03,-0.29,9.0
1534.38,-2.15,-0.24,9.11
1534.09,-1.91,-0.23,8.93
1534.28,-1.73,-0.12,9.05
1534.57,-1.79,-0.12,9.19
1533.99,-1.89,-0.26,9.01
1534.19,-2.03,-0.18,9.0
1534.19,-1.94,-0.19,8.97
1533.8,-1.86,-0.17,9.02
1534.57,-1.78,-0.13,9.06
1534.38,-1.91,-0.22,9.05
1534.47,-2.04,-0.21,9.06
1534.57,-1.97,-0.25,9.08
1534.28,-1.88,-0.29,8.92
1534.28,-1.86,-0.21,9.02
1534.09,-1.82,-0.23,9.01
1534.57,-1.9,-0.26,9.15
1534.38,-1.94,-0.19,9.04
1534.66,-1.9,-0.17,9.03
1534.57,-1.82,-0.23,9.05
1534.38,-1.87,-0.19,9.07
1534.38,-1.94,-0.26,8.99
1534.28,-1.95,-0.26,9.08
1533.99,-1.95,-0.21,8.96
1534.19,-1.91,-0.21,8.99
1534.57,-1.84,-0.21,9.12
1534.38,-1.9,-0.2,9.09
1534.28,-1.94,-0.25,9.1
1534.66,-1.84,-0.22,9.02
1534.66,-1.92,-0.24,9.01
1534.28,-1.87,-0.2,9.0
1534.38,-1.87,-0.17,9.09
1534.47,-1.86,-0.24,9.04
1534.38,-1.91,-0.23,9.03
1533.99,-1.96,-0.25,9.0
1533.99,-1.93,-0.2,8.98
1534.38,-1.86,-0.15,9.0
1534.95,-1.89,-0.23,9.0
1534.76,-1.88,-0.17,9.03
1534.76,-1.97,-0.24,8.99
1534.28,-1.88,-0.19,9.08
1534.76,-1.93,-0.28,9.0
1534.38,-1.91,-0.2,9.04
1534.47,-1.83,-0.22,9.01
1534.38,-1.93,-0.18,9.19
1534.76,-1.83,-0.18,9.14
1534.76,-1.81,-0.19,8.92
1534.76,-1.94,-0.27,9.05
1534.76,-2.09,-0.27,9.17
1534.47,-1.86,-0.23,9.14
1534.57,-1.82,-0.2,9.15
1535.05,-1.8,-0.15,9.14
1534.66,-1.94,-0.21,9.09
1534.09,-1.98,-0.19,9.05
1534.66,-1.95,-0.18,8.98
1534.28,-1.92,-0.18,9.04
1534.47,-0.98,-1.45,4.01
1534.76,-2.07,-0.06,9.98
1534.95,-1.88,-0.24,8.99
1535.43,-1.85,-0.21,9.03
1535.24,-1.92,-0.23,9.08
1534.76,-1.99,-0.23,9.18
1534.95,-1.91,-0.21,9.03
1535.05,-1.85,-0.21,8.98
1534.57,-1.85,-0.21,9.09
1534.38,-1.96,-0.17,8.94
1534.57,-1.85,-0.25,9.05
1534.66,-1.89,-0.23,8.98
1535.05,-1.92,-0.15,8.94
1535.14,-1.85,-0.18,9.08
1534.95,-1.9,-0.24,9.02
1534.95,-1.87,-0.2,9.07
1534.57,-1.87,-0.17,9.07
1534.66,-1.92,-0.2,9.02
1534.76,-1.88,-0.23,8.97
1534.57,-1.9,-0.23,9.08
1534.38,-1.72,-0.16,9.08
1534.86,-2.39,-0.18,8.83
1534.57,-1.74,0.06,8.76
1534.95,-1.8,-0.13,9.09
1534.57,-1.79,-0.29,9.28
1534.76,-1.16,-0.25,9.14
1534.57,-0.33,-0.13,8.61
1534.66,-1.02,-0.08,9.27
1534.76,-0.98,-0.08,9.13
1534.57,-1.01,-0.14,9.14
1534.38,-1.01,-0.1,9.24
1534.38,-1.07,-0.11,9.2
1533.99,-0.85,-0.04,9.1
1533.9,-0.61,-0.03,8.97
1534.38,-2.02,-0.24,9.45
1534.66,-2.27,0.23,10.02
1534.57,-1.54,-0.29,9.0
1534.57,-1.98,-0.26,8.99
1534.57,-1.9,-0.24,9.11
1534.57,-1.89,-0.21,9.04
1534.76,-1.87,-0.23,9.0
1534.57,-1.91,-0.28,9.01
1534.57,-1.66,0.37,8.73
1534.66,-1.95,-0.23,9.1
1534.66,-1.72,-0.17,9.12
1534.66,-1.69,-0.15,9.23
1534.76,-1.6,-0.22,9.04
1535.24,-1.39,-0.09,9.02
1535.05,-1.55,-0.15,9.13
1534.95,-1.54,-0.13,9.11
1535.05,-1.42,-0.16,9.28
1535.14,-1.51,-0.1,9.14
1535.62,-1.48,-0.24,9.1
1535.24,-1.61,-0.17,8.98
1535.14,-1.66,-0.19,9.13
1535.72,-1.62,-0.13,9.08
1535.52,-1.75,-0.21,8.99
1535.52,-1.72,-0.19,9.06
1535.62,-1.79,-0.19,9.03
1535.72,-1.76,-0.18,9.04
1535.62,-1.75,-0.17,9.05
1535.62,-1.74,-0.21,9.05
1535.72,-1.85,-0.23,9.0
1535.52,-1.88,-0.2,9.07
1535.33,-1.79,-0.15,9.08
1535.62,-1.6,-0.23,9.1
1536.0,-1.8,-0.19,8.99
1535.33,-1.8,-0.17,8.99
1535.81,-1.83,-0.21,9.02
1535.72,-1.87,-0.18,8.99
1535.33,-1.81,-0.17,9.01
1536.0,-1.82,-0.2,9.0
1534.95,-1.87,-0.2,9.08
1535.43,-1.87,-0.19,9.0
1535.62,-1.77,-0.18,9.0
1535.72,-1.82,-0.21,9.05
1535.43,-1.78,-0.21,9.06
1536.0,-1.83,-0.21,8.95
1536.1,-1.81,-0.17,9.04
1536.19,-1.85,-0.22,9.08
1536.48,-1.74,-0.21,8.97
1536.39,-1.81,-0.13,9.0
1536.58,-1.83,-0.19,9.07
1536.29,-1.9,-0.18,9.05
1536.67,-1.85,-0.15,9.08
1536.48,-1.86,-0.16,9.05
1536.86,-1.85,-0.19,9.0
1537.06,-1.81,-0.21,8.98
1536.77,-1.85,-0.17,9.02
1536.77,-1.78,-0.16,9.03
1537.06,-1.85,-0.23,9.0
1537.06,-1.86,-0.24,8.97
1537.25,-1.79,-0.27,9.08
1537.25,-1.85,-0.17,9.03
1537.25,-1.79,-0.2,9.13
1537.06,-1.85,-0.22,9.08
1537.44,-1.82,-0.18,9.15
1537.34,-1.8,-0.18,9.08
1537.54,-1.83,-0.23,9.11
1537.25,-1.89,-0.23,9.06
1537.73,-1.83,-0.21,9.08
1537.25,-1.86,-0.22,9.04
1537.63,-1.85,-0.22,9.01
1537.54,-1.86,-0.16,9.05
1537.25,-1.84,-0.23,9.11
1537.34,-1.86,-0.25,9.01
1537.63,-1.82,-0.22,9.02
1537.73,-1.81,-0.22,9.05
1537.25,-1.78,-0.19,9.12
1536.96,-1.84,-0.16,9.01
1537.15,-1.89,-0.18,8.94
1536.86,-1.81,-0.24,9.05
1537.15,-1.94,-0.19,8.97
1537.15,-1.9,-0.19,9.04
1536.67,-1.79,-0.22,8.99
1537.92,-1.88,-0.2,9.28
1536.86,-2.0,-0.19,8.98
1537.73,-1.86,-0.22,8.95
1537.44,-1.89,-0.17,9.02
1537.15,-1.84,-0.2,9.07
1537.63,-1.93,-0.16,9.05
1537.44,-1.95,-0.22,8.98
1537.54,-2.13,-0.14,8.92
1537.25,-1.84,-0.26,8.9
1537.54,-1.88,-0.21,8.97
1537.73,-1.93,-0.22,9.0
1537.54,-1.84,-0.25,9.05
1537.44,-1.89,-0.13,9.05
1536.96,-1.88,-0.2,9.07
1536.86,-1.9,-0.23,9.04
1537.25,-1.88,-0.17,8.91
1537.25,-1.82,-0.27,8.89
1537.15,-1.82,-0.16,9.02
1536.96,-1.84,-0.23,9.02
1536.58,-1.87,-0.2,9.05
1536.77,-1.91,-0.23,8.99
1536.77,-1.91,-0.22,9.07
1536.86,-1.91,-0.16,9.05
1536.48,-1.86,-0.24,9.07
1536.96,-1.87,-0.26,9.02
1536.1,-1.92,-0.22,9.0
1536.48,-1.88,-0.19,9.02
1536.29,-1.84,-0.23,9.05
1536.29,-1.85,-0.18,9.07
1535.91,-1.91,-0.2,8.98
1536.29,-1.82,-0.2,9.02
1536.29,-1.95,-0.21,9.06
1536.67,-1.88,-0.18,9.1
1536.86,-1.79,-0.2,9.05
1536.39,-1.89,-0.17,9.06
1536.1,-1.95,-0.18,9.0
1536.39,-2.07,-0.23,9.05
1536.39,-1.96,-0.19,9.04
1536.48,-1.87,-0.25,9.09
1536.1,-1.86,-0.19,9.09
1536.48,-1.89,-0.17,9.04
1536.67,-1.84,-0.25,9.05
1536.19,-1.91,-0.24,9.07
1536.48,-1.93,-0.14,9.08
1536.86,-1.83,-0.19,9.03
1535.91,-1.89,-0.15,9.08
1536.19,-1.93,-0.21,8.95
1536.19,-1.88,-0.24,9.06
1536.1,-1.88,-0.18,9.02
1536.48,-1.86,-0.17,9.11
1535.72,-1.87,-0.23,8.99
1536.29,-1.88,-0.29,9.06
1536.0,-1.93,-0.26,8.96
1536.19,-1.89,-0.18,9.02
1536.19,-1.83,-0.18,9.06
1536.1,-1.85,-0.18,9.08
1536.29,-1.91,-0.17,8.96
1535.91,-1.87,-0.23,9.05
1536.1,-1.88,-0.2,9.0
1535.81,-1.95,-0.17,9.05
1535.91,-1.91,-0.17,9.05
1536.0,-1.9,-0.19,9.03
1535.72,-1.93,-0.23,9.0
1535.91,-1.81,-0.25,9.02
1535.62,-1.87,-0.17,9.03
1536.29,-1.85,-0.24,8.98
1536.48,-1.88,-0.19,9.06
1536.48,-1.88,-0.22,9.03
1536.39,-1.88,-0.15,9.0
1536.58,-1.87,-0.15,8.96
1536.1,-1.88,-0.15,9.1
1536.19,-1.88,-0.25,8.94
1536.77,-1.92,-0.16,9.1
1535.81,-1.92,-0.23,8.98
1536.1,-1.92,-0.18,9.01
1536.19,-1.84,-0.19,9.05
1536.29,-1.84,-0.22,9.01
1536.1,-1.87,-0.16,9.03
1536.29,-1.89,-0.16,9.0
1536.0,-1.93,-0.21,9.03
1536.19,-1.9,-0.19,9.03
1536.0,-1.95,-0.19,9.06
1536.19,-1.87,-0.2,9.06
1536.19,-1.81,-0.25,9.11
1535.62,-1.87,-0.16,8.95
1535.91,-1.84,-0.23,9.01
1535.91,-1.89,-0.17,8.97
1536.0,-1.87,-0.2,9.06
1535.91,-1.91,-0.17,9.11
1535.91,-1.87,-0.23,9.01
1535.72,-1.91,-0.2,9.02
1535.91,-1.97,-0.2,8.95
1535.91,-1.91,-0.29,8.96
1535.91,-1.92,-0.18,8.94
1536.0,-1.88,-0.16,9.05
1536.19,-1.85,-0.2,8.96
1536.1,-1.84,-0.17,9.05
1535.52,-1.8,-0.22,9.02
1535.62,-1.97,-0.21,9.03
1535.43,-1.89,-0.18,9.01
1535.91,-1.87,-0.21,8.97
1535.52,-1.9,-0.28,9.02
1536.19,-1.88,-0.19,9.04
1535.43,-1.9,-0.25,9.07
1535.62,-1.91,-0.19,9.05
1535.43,-1.87,-0.17,9.03
1535.62,-1.89,-0.18,9.01
1535.91,-1.93,-0.2,9.05
1535.91,-1.89,-0.19,9.01
1535.62,-1.89,-0.19,8.97
1535.91,-1.88,-0.2,9.08
1536.1,-1.89,-0.22,9.05
1536.0,-1.88,-0.2,9.01
1535.81,-1.93,-0.23,9.11
1535.62,-1.85,-0.17,8.93
1535.91,-1.77,-0.18,9.09
1535.72,-1.9,-0.17,9.04
1535.91,-1.98,-0.24,9.1
1535.52,-2.11,-0.24,8.85
1535.43,-1.87,-0.19,9.04
1535.72,-1.65,-0.11,9.07
1536.0,-1.92,-0.19,8.95
1535.52,-1.91,-0.17,9.06
1535.62,-1.7,-0.23,9.07
1535.62,-1.83,-0.19,9.13
1535.62,-1.94,-0.25,9.01
1535.62,-1.99,-0.24,8.98
1535.62,-1.81,-0.16,9.05
1535.72,-1.84,-0.23,9.11
1535.52,-1.83,-0.18,9.01
1535.05,-1.97,-0.18,9.02
1535.43,-1.94,-0.18,8.91
1534.95,-1.9,-0.21,9.03
1535.52,-1.92,-0.2,9.11
1535.24,-1.97,-0.21,8.99
1535.81,-1.88,-0.2,9.05
1535.33,-1.86,-0.17,8.99
1535.72,-1.8,-0.19,9.09
1535.33,-1.95,-0.25,9.05
1535.33,-1.86,-0.25,8.95
1535.72,-1.95,-0.23,8.99
1535.62,-1.86,-0.19,9.03
1535.24,-1.8,-0.11,9.0
1535.24,-1.83,-0.2,9.0
1535.24,-1.92,-0.18,9.01
1535.24,-2.0,-0.19,8.96
1535.62,-1.78,-0.12,9.07
1535.62,-1.76,-0.19,9.0
1535.62,-1.83,-0.17,9.08
1535.72,-2.02,-0.2,9.02
1535.62,-2.15,-0.29,8.94
1535.91,-2.11,-0.25,8.94
1535.62,-1.74,-0.19,9.11
1535.14,-1.64,-0.2,9.05
1535.14,-1.67,-0.16,9.07
1534.86,-1.86,-0.17,9.04
1535.52,-2.05,-0.22,9.0
1534.86,-2.03,-0.27,8.94
1535.62,-1.84,-0.15,9.04
1535.52,-1.72,-0.18,9.08
1535.24,-1.77,-0.19,9.04
1535.43,-1.97,-0.23,8.99
1535.81,-2.03,-0.24,9.05
1535.43,-1.94,-0.23,9.04
1535.14,-1.86,-0.23,9.1
1535.05,-1.84,-0.17,9.05
1535.05,-1.8,-0.22,8.99
1535.05,-1.91,-0.18,8.95
1535.24,-1.96,-0.19,9.04
1535.24,-2.01,-0.2,9.01
1535.14,-1.85,-0.23,9.08
1535.43,-1.73,-0.18,9.03
1535.52,-1.84,-0.15,9.01
1535.52,-2.0,-0.23,9.03
1535.62,-2.03,-0.18,9.03
1535.24,-1.94,-0.25,8.93
1535.43,-1.77,-0.14,9.08
1535.43,-1.81,-0.23,9.07
1535.62,-1.89,-0.18,9.03
1535.24,-1.91,-0.22,9.01
1535.43,-1.89,-0.24,9.06
1535.33,-1.95,-0.17,9.03
1535.14,-1.88,-0.23,9.02
1535.24,-1.85,-0.2,8.98
1535.43,-1.87,-0.16,9.11
1535.33,-1.92,-0.16,9.03
1535.62,-1.97,-0.27,9.06
1535.24,-1.93,-0.19,9.06
1535.43,-1.89,-0.19,9.07
1535.62,-1.84,-0.19,9.03
1535.33,-1.92,-0.27,9.07
1535.33,-1.94,-0.22,9.06
1535.62,-1.94,-0.27,8.98
1535.05,-1.88,-0.22,9.15
1535.24,-1.87,-0.25,8.93
1534.86,-1.88,-0.17,8.97
1534.38,-1.88,-0.2,9.0
1534.38,-1.83,-0.2,9.0
1535.05,-1.87,-0.24,9.09
1535.24,-1.84,-0.19,9.03
1534.86,-1.86,-0.24,9.09
1534.76,-1.94,-0.18,9.04
1535.24,-1.99,-0.22,9.09
1534.95,-1.88,-0.21,9.1
1535.24,-1.86,-0.19,8.99
1535.43,-1.84,-0.21,9.07
1535.43,-1.9,-0.17,9.11
1535.33,-1.9,-0.22,9.06
1535.33,-1.9,-0.17,9.03
1534.95,-1.89,-0.18,9.03
1535.33,-1.87,-0.24,9.0
1534.86,-1.88,-0.16,8.99
1535.24,-1.9,-0.17,9.06
1535.24,-1.87,-0.23,8.98
1535.14,-1.86,-0.18,8.92
1535.33,-1.92,-0.19,9.0
1535.24,-1.92,-0.24,9.03
1535.05,-1.85,-0.18,9.09
1534.86,-1.95,-0.2,9.02
1534.95,-1.87,-0.2,9.01
1535.52,-1.86,-0.21,9.06
1534.95,-1.93,-0.23,9.0
1535.72,-1.92,-0.22,9.05
1535.52,-1.86,-0.21,9.06
1534.66,-1.84,-0.1,9.08
1535.14,-1.81,-0.17,9.03
1535.33,-1.93,-0.24,9.07
1535.24,-1.98,-0.23,8.94
1534.76,-2.09,-0.24,8.98
1535.05,-1.73,-0.15,8.97
1534.47,-1.61,-0.12,9.03
1535.52,-1.79,-0.16,8.99
1535.33,-1.98,-0.17,8.96
1534.09,-2.02,-0.22,9.02
1534.19,-1.98,-0.19,8.97
1534.28,-1.8,-0.17,9.05
1534.19,-1.72,-0.15,9.05
1534.86,-1.89,-0.16,9.0
1534.95,-1.99,-0.26,9.01
1534.66,-2.05,-0.24,9.03
1534.38,-1.84,-0.19,8.96
1534.47,-1.77,-0.2,8.98
1535.05,-1.87,-0.12,9.08
1534.38,-1.94,-0.23,9.01
1535.52,-2.05,-0.22,9.05
1534.95,-2.0,-0.18,9.09
1535.14,-1.78,-0.2,9.01
1535.24,-1.79,-0.2,9.08
1535.52,-1.88,-0.23,9.05
1535.52,-2.02,-0.33,9.02
1535.52,-2.01,-0.17,9.01
1534.86,-1.79,-0.18,9.09
1535.52,-1.77,-0.14,9.08
1535.24,-1.86,-0.15,9.07
1535.24,-1.93,-0.25,9.0
1535.52,-1.97,-0.18,9.01
1535.14,-1.98,-0.2,9.15
1534.86,-1.79,-0.19,9.04
1535.33,-1.81,-0.15,9.07
1534.95,-1.95,-0.16,9.06
1535.14,-2.0,-0.19,8.96
1535.52,-1.92,-0.24,9.11
1535.24,-1.85,-0.17,9.05
1535.24,-1.84,-0.2,8.97
1534.86,-1.84,-0.18,9.12
1534.57,-1.92,-0.24,9.06
1534.95,-2.06,-0.23,8.98
1535.33,-1.95,-0.16,8.96
1535.14,-1.72,-0.19,9.06
1535.33,-1.7,-0.14,8.82
1535.33,-1.79,-0.16,8.98
1534.95,-1.88,-0.27,8.97
1535.05,-2.02,-0.23,8.95
1535.24,-1.88,-0.23,9.02
1534.57,-1.92,-0.17,8.95
1534.66,-1.86,-0.18,9.12
1535.14,-1.83,-0.16,9.01
1535.05,-1.89,-0.23,9.11
1535.14,-1.86,-0.24,9.01
1535.43,-2.01,-0.17,9.03
1534.95,-1.82,-0.23,9.02
1534.95,-1.82,-0.17,8.92
1535.14,-1.85,-0.16,9.12
1534.28,-1.88,-0.2,8.97
1534.47,-2.04,-0.28,8.98
1534.38,-1.95,-0.24,9.04
1533.9,-1.88,-0.2,9.11
1534.57,-1.81,-0.17,9.0
1534.86,-1.86,-0.18,9.03
1534.66,-1.92,-0.25,9.04
1535.05,-1.87,-0.24,8.87
1535.05,-1.94,-0.29,8.99
1535.24,-1.88,-0.2,9.01
1535.14,-1.84,-0.18,9.13
1534.76,-1.8,-0.19,9.11
1534.66,-1.89,-0.17,8.99
1535.14,-1.95,-0.25,9.01
1535.05,-1.93,-0.23,9.04
1534.95,-1.87,-0.19,8.97
1534.76,-1.85,-0.17,9.07
1535.24,-1.83,-0.18,9.07
1535.33,-1.86,-0.27,9.01
1535.33,-1.91,-0.22,9.08
1534.86,-1.92,-0.22,9.03
1535.05,-1.91,-0.16,8.99
1534.76,-1.87,-0.16,9.05
1535.33,-1.86,-0.19,9.1
1535.14,-1.88,-0.16,9.0
1534.38,-1.88,-0.25,9.1
1535.33,-1.87,-0.18,8.99
1535.05,-1.92,-0.2,9.04
1534.95,-1.92,-0.24,8.97
1535.14,-1.87,-0.24,8.91
1535.14,-1.82,-0.23,8.97
1534.86,-1.81,-0.24,8.99
1534.66,-1.94,-0.15,9.08
1534.76,-1.98,-0.26,8.98
1534.95,-1.89,-0.23,8.98
1534.66,-1.88,-0.16,9.0
1534.66,-1.83,-0.21,9.04
1535.05,-1.87,-0.22,9.09
1534.76,-1.92,-0.21,9.05
1533.99,-1.88,-0.18,9.11
1534.09,-2.0,-0.21,9.1
1535.24,-1.88,-0.23,9.01
1534.95,-1.84,-0.15,9.05
1535.24,-1.84,-0.22,9.02
1534.86,-1.88,-0.16,9.0
1534.47,-1.9,-0.19,9.08
1535.05,-1.81,-0.25,9.1
1535.05,-1.91,-0.23,9.01
1535.62,-1.83,-0.2,8.99
1535.14,-1.92,-0.19,9.11
1534.76,-1.96,-0.21,9.06
1535.14,-1.94,-0.17,9.06
1535.52,-1.87,-0.19,9.06
1535.24,-1.83,-0.21,8.98
1535.33,-1.86,-0.17,9.0
1534.95,-1.81,-0.16,9.13
1534.95,-1.88,-0.17,9.05
1535.05,-1.93,-0.18,9.05
1535.43,-1.86,-0.23,9.03
1534.86,-1.88,-0.19,9.07
1534.57,-1.87,-0.23,8.99
1534.76,-1.81,-0.19,8.96
1534.47,-1.86,-0.21,9.0
1535.33,-1.84,-0.19,9.09
1535.14,-1.91,-0.25,9.03
1534.38,-1.97,-0.2,9.08
1534.76,-1.88,-0.24,9.0
1534.66,-1.93,-0.27,9.0
1535.43,-1.91,-0.15,9.09
1534.86,-1.81,-0.19,9.05
1535.05,-1.9,-0.23,9.11
1534.95,-1.89,-0.18,9.0
1535.24,-1.82,-0.23,8.96
1535.05,-1.92,-0.2,9.05
1535.24,-1.89,-0.2,8.99
1534.76,-1.88,-0.21,8.96
1535.24,-1.84,-0.2,8.95
1535.14,-1.84,-0.22,9.02
1535.33,-1.9,-0.23,9.01
1534.28,-1.9,-0.26,9.06
1534.57,-1.95,-0.23,8.91
1534.86,-1.86,-0.12,9.01
1535.24,-1.94,-0.19,8.94
1534.95,-1.88,-0.2,8.93
1535.33,-1.84,-0.2,9.04
1534.95,-1.87,-0.22,8.98
1535.14,-1.9,-0.18,9.0
1535.05,-1.92,-0.23,9.01
1534.76,-1.91,-0.23,8.97
1535.05,-1.92,-0.21,8.96
1534.66,-1.85,-0.22,9.07
1534.38,-1.87,-0.25,9.01
1535.24,-1.87,-0.21,8.98
1535.05,-1.91,-0.23,9.0
1534.66,-1.82,-0.21,9.1
1535.43,-1.87,-0.2,9.05
1534.95,-1.92,-0.17,8.95
1535.14,-1.91,-0.22,9.01
1534.86,-1.89,-0.23,8.94
1535.43,-1.86,-0.2,9.05
1535.14,-1.96,-0.2,9.01
1535.33,-1.96,-0.16,9.03
1535.14,-1.86,-0.21,9.04
1535.62,-1.9,-0.26,9.0
1535.24,-1.89,-0.21,8.95
1535.05,-1.94,-0.25,8.93
1534.47,-1.83,-0.2,9.11
1535.14,-1.82,-0.18,8.92
1535.05,-1.92,-0.23,9.05
1534.47,-1.93,-0.17,9.05
1534.95,-1.92,-0.23,9.03
1534.47,-1.9,-0.17,9.06
1534.19,-1.81,-0.18,9.04
1534.76,-1.84,-0.17,9.0
1534.86,-2.01,-0.26,9.05
1535.05,-1.95,-0.2,9.05
1534.95,-1.87,-0.17,9.04
1534.28,-1.8,-0.12,9.07
1535.05,-1.86,-0.17,9.05
1534.95,-1.95,-0.18,9.0
1534.86,-1.96,-0.17,8.99
1534.76,-1.88,-0.26,8.97
1534.38,-1.91,-0.17,9.05
1534.76,-1.84,-0.21,9.08
1535.43,-1.79,-0.19,8.95
1534.76,-1.89,-0.18,9.12
1534.76,-1.87,-0.14,9.02
1535.33,-1.92,-0.24,9.09
1534.66,-1.95,-0.13,9.06
1534.76,-1.87,-0.22,9.09
1534.76,-1.85,-0.18,8.99
1534.76,-2.0,-0.26,9.03
1535.24,-2.01,-0.19,8.89
1534.76,-1.9,-0.23,9.05
1535.33,-1.81,-0.23,9.03
1535.52,-1.82,-0.2,9.05
Altitude,ax,ay,az
1535.24,-1.87,-0.16,9.05
1535.33,-1.91,-0.19,9.03
1535.24,-1.91,-0.27,9.05
1535.14,-1.9,-0.22,9.08
1535.43,-1.87,-0.2,8.99
1535.81,-1.91,-0.19,9.14
1535.43,-1.87,-0.22,9.0
1535.24,-1.91,-0.16,8.98
1535.52,-1.88,-0.14,9.11
1535.43,-1.85,-0.24,9.13
1535.72,-1.94,-0.24,8.96
1535.91,-1.91,-0.26,8.96
1535.62,-1.84,-0.24,9.05
1535.62,-1.83,-0.24,8.99
1535.52,-1.86,-0.17,8.91
1535.62,-1.86,-0.23,9.06
1534.66,-1.89,-0.18,9.13
1534.95,-1.82,-0.25,8.93
1535.24,-1.91,-0.18,9.02
1535.52,-1.85,-0.18,8.98
1535.43,-1.88,-0.2,9.08
1535.24,-1.9,-0.22,9.08
1535.62,-1.82,-0.26,9.06
1535.33,-1.9,-0.2,9.15
1535.33,-1.89,-0.25,8.98
1535.33,-1.88,-0.14,8.97
1535.33,-1.86,-0.19,8.99
1535.52,-1.88,-0.23,8.99
1535.24,-1.88,-0.2,9.05
1535.52,-1.85,-0.23,9.02
1535.43,-1.9,-0.17,9.04
1535.62,-1.92,-0.19,9.05
1535.52,-1.86,-0.21,9.02
1535.24,-1.89,-0.21,9.02
1535.72,-1.9,-0.22,9.06
1535.43,-1.87,-0.18,9.0
1535.72,-1.92,-0.23,9.07
1535.52,-1.87,-0.24,9.04
1535.62,-1.9,-0.22,9.02
1535.81,-1.9,-0.17,9.09
1535.52,-1.91,-0.16,9.0
1535.62,-1.92,-0.18,8.99
1536.1,-1.86,-0.19,9.02
1535.24,-1.88,-0.21,9.17
1535.81,-1.91,-0.21,8.97
1535.43,-1.87,-0.19,9.06
1535.05,-1.9,-0.16,9.0
1535.05,-1.86,-0.19,9.06
1535.62,-1.9,-0.17,8.98
1535.33,-1.85,-0.21,9.04
1534.47,-1.89,-0.21,8.98
1535.24,-1.89,-0.17,9.11
1535.62,-1.87,-0.22,9.0
1535.05,-1.88,-0.22,9.1
1535.62,-1.89,-0.18,9.02
1535.62,-1.9,-0.19,9.06
1535.72,-1.92,-0.28,8.98
1535.43,-1.88,-0.2,9.06
1535.24,-1.89,-0.19,9.06
1534.95,-1.88,-0.17,9.0
1535.62,-1.82,-0.24,9.07
1535.24,-1.85,-0.2,9.06
1535.52,-1.91,-0.25,9.0
1535.24,-1.95,-0.17,9.08
1534.38,-1.88,-0.22,9.03
1535.24,-1.8,-0.17,9.08
1535.72,-1.78,-0.22,9.03
1535.33,-2.02,-0.22,8.93
1535.43,-1.92,-0.18,9.03
1535.24,-1.95,-0.2,9.08
1535.91,-1.79,-0.19,9.0
1535.24,-1.79,-0.17,9.02
1535.52,-1.84,-0.18,9.07
1534.95,-1.92,-0.21,9.03
1535.33,-1.94,-0.17,8.9
1535.05,-1.92,-0.19,9.04
1535.72,-1.83,-0.17,8.98
1535.33,-1.84,-0.18,9.05
1535.52,-1.82,-0.23,9.05
1535.05,-1.98,-0.24,9.01
1534.66,-1.95,-0.2,8.98
1535.33,-1.89,-0.23,8.98
1534.86,-1.79,-0.16,9.16
1535.72,-1.89,-0.21,9.09
1534.66,-1.98,-0.23,8.98
1535.05,-1.86,-0.16,8.96
1535.52,-1.87,-0.21,9.04
1535.62,-1.89,-0.17,9.06
1535.52,-1.83,-0.21,9.07
1535.33,-1.88,-0.22,9.06
1535.14,-1.85,-0.23,9.01
1535.43,-1.9,-0.21,9.03
1536.0,-1.87,-0.18,8.96
1535.62,-1.91,-0.2,9.08
1535.52,-1.88,-0.16,9.02
1535.62,-1.87,-0.21,9.02
1535.52,-1.88,-0.27,9.03
1534.95,-1.88,-0.19,8.94
1535.91,-1.87,-0.23,9.08
1535.24,-1.84,-0.23,9.04
1535.72,-1.81,-0.19,8.91
1535.52,-1.87,-0.13,9.11
1535.33,-1.85,-0.23,8.99
1535.24,-1.88,-0.22,8.96
1535.43,-1.93,-0.2,9.03
1534.66,-1.86,-0.21,9.02
1535.91,-1.89,-0.2,8.97
1535.81,-1.85,-0.22,9.09
1535.62,-1.88,-0.2,9.01
1535.14,-1.85,-0.2,9.04
1535.52,-1.92,-0.17,9.03
1535.62,-1.86,-0.18,8.99
1535.14,-1.86,-0.28,8.98
1535.52,-1.9,-0.22,9.01
1535.14,-1.87,-0.26,9.04
1535.52,-1.85,-0.26,9.05
1535.52,-1.87,-0.24,8.94
1535.24,-1.92,-0.25,9.04
1535.52,-1.89,-0.2,9.03
1535.62,-1.86,-0.26,8.99
1535.62,-1.88,-0.17,8.96
1535.72,-1.95,-0.22,9.02
1535.91,-1.87,-0.18,9.03
1535.62,-1.75,-0.19,9.07
1535.24,-1.84,-0.19,8.92
1535.24,-1.84,-0.24,9.08
1535.52,-1.97,-0.22,9.0
1535.52,-1.93,-0.26,9.08
1535.62,-1.91,-0.19,8.91
1535.52,-1.92,-0.19,9.05
1536.1,-1.91,-0.2,8.93
1535.72,-1.85,-0.22,8.98
1536.0,-1.93,-0.2,9.0
1535.62,-1.87,-0.24,9.02
1536.19,-1.88,-0.22,9.05
1534.95,-1.89,-0.23,8.92
1535.72,-1.92,-0.21,9.01
1535.62,-1.88,-0.23,9.07
1535.81,-1.88,-0.24,9.02
1535.62,-1.91,-0.2,9.03
1535.33,-1.88,-0.25,9.05
1535.72,-1.8,-0.18,9.01
1535.62,-1.86,-0.17,9.03
1536.0,-1.88,-0.23,9.01
1536.1,-1.93,-0.2,9.09
1535.72,-1.87,-0.23,8.98
1536.1,-1.88,-0.22,8.94
1535.91,-1.9,-0.17,9.03
1536.29,-1.81,-0.2,9.06
1535.24,-1.95,-0.2,8.99
1535.91,-1.81,-0.16,9.03
1535.91,-1.82,-0.16,8.98
1535.62,-1.87,-0.19,9.02
1535.81,-1.93,-0.19,9.07
1535.91,-1.94,-0.26,9.12
1535.43,-1.91,-0.2,9.04
1535.91,-1.86,-0.14,9.05
1536.1,-1.85,-0.26,9.04
1535.81,-1.89,-0.14,8.99
1535.33,-1.89,-0.22,9.03
1535.81,-1.92,-0.23,9.0
1535.43,-1.92,-0.19,9.0
1536.0,-1.88,-0.21,9.02
1535.72,-1.88,-0.23,9.09
1536.0,-1.89,-0.29,9.0
1535.33,-1.94,-0.14,9.05
1535.62,-1.91,-0.23,9.01
1535.62,-1.89,-0.16,9.0
1535.72,-1.9,-0.2,9.04
1536.1,-1.93,-0.15,9.03
1535.43,-1.9,-0.23,9.13
1535.62,-1.86,-0.23,9.01
1535.33,-1.9,-0.24,9.04
1535.91,-1.97,-0.15,9.02
1535.52,-1.87,-0.18,8.92
1535.62,-1.86,-0.19,9.02
1535.62,-1.89,-0.2,9.02
1535.91,-1.9,-0.21,9.11
1535.33,-1.86,-0.15,9.03
1535.62,-1.92,-0.21,9.02
1534.86,-1.89,-0.21,9.0
1535.62,-1.9,-0.25,9.11
1535.33,-1.86,-0.24,9.14
1535.72,-1.85,-0.24,9.0
1535.43,-1.87,-0.23,8.98
1535.24,-1.85,-0.24,9.07
1536.0,-1.9,-0.2,8.93
1535.05,-1.91,-0.28,9.05
1535.43,-1.91,-0.2,9.0
1535.62,-1.92,-0.15,9.0
1535.43,-1.88,-0.22,9.02
1535.62,-1.85,-0.23,9.02
1536.0,-1.86,-0.2,9.02
1535.62,-1.94,-0.26,9.06
1535.81,-1.88,-0.21,8.97
1535.72,-1.9,-0.19,9.09
1535.62,-1.82,-0.14,9.11
1535.43,-1.94,-0.21,9.1
1535.72,-1.93,-0.17,8.96
1535.52,-1.88,-0.25,9.1
1535.52,-1.86,-0.19,9.04
1535.62,-1.92,-0.2,9.06
1535.62,-1.89,-0.2,9.01
1534.95,-1.91,-0.17,9.11
1534.95,-1.86,-0.18,8.99
1535.72,-1.81,-0.22,9.0
1535.14,-1.9,-0.15,9.06
1534.86,-1.82,-0.23,9.04
1536.1,-1.88,-0.2,8.96
1535.62,-1.86,-0.17,9.1
1535.52,-1.9,-0.21,8.98
1535.72,-1.93,-0.23,9.14
1535.81,-1.86,-0.19,9.0
1536.0,-1.91,-0.22,9.04
1535.62,-1.85,-0.23,9.1
1535.62,-1.84,-0.25,9.11
1535.43,-1.89,-0.24,9.03
1535.81,-1.84,-0.23,9.09
1535.72,-1.85,-0.17,9.1
1535.72,-1.88,-0.2,9.05
1535.52,-1.87,-0.25,9.07
1535.24,-1.9,-0.16,8.99
1534.95,-1.89,-0.23,9.01
1535.24,-1.84,-0.16,9.02
1534.95,-1.91,-0.17,9.0
1535.81,-1.86,-0.23,8.98
1535.62,-1.92,-0.28,8.99
1535.62,-1.83,-0.21,8.92
1535.43,-1.87,-0.19,9.0
1535.33,-1.91,-0.23,9.0
1535.72,-1.85,-0.21,9.03
1535.52,-1.91,-0.16,9.05
1534.95,-1.92,-0.17,9.04
1535.33,-1.86,-0.21,9.05
1535.52,-1.85,-0.23,9.03
1535.43,-1.81,-0.21,8.98
1535.62,-1.98,-0.26,9.01
1535.62,-1.88,-0.22,8.97
1535.43,-1.92,-0.2,9.07
1535.43,-1.85,-0.17,9.1
1534.76,-1.83,-0.16,8.92
1535.14,-1.87,-0.2,8.99
1535.52,-1.92,-0.29,9.0
1535.24,-1.88,-0.2,8.95
1535.33,-1.84,-0.24,8.97
1535.62,-1.9,-0.2,9.01
1535.81,-1.88,-0.19,8.97
1535.05,-1.92,-0.24,9.03
1535.52,-1.85,-0.2,8.97
1535.05,-1.87,-0.24,9.09
1535.05,-1.87,-0.11,9.06
1535.24,-1.86,-0.22,8.95
1535.33,-1.86,-0.22,9.05
1534.95,-1.86,-0.13,9.09
1535.62,-1.88,-0.21,8.98
1535.52,-1.91,-0.22,9.07
1535.62,-1.9,-0.2,9.07
1535.62,-1.89,-0.25,9.01
1535.72,-1.88,-0.2,9.06
1535.24,-1.85,-0.19,9.02
1535.62,-1.89,-0.23,9.0
1535.24,-1.9,-0.2,9.0
1534.66,-1.81,-0.2,9.08
1535.72,-1.8,-0.19,9.03
1535.62,-1.98,-0.17,9.07
1535.43,-1.92,-0.18,9.05
1535.52,-1.91,-0.2,9.04
1535.43,-1.88,-0.16,9.03
1535.62,-1.83,-0.17,9.01
1535.24,-1.88,-0.21,8.98
1535.52,-1.89,-0.25,9.04
1535.52,-1.89,-0.25,9.02
1535.52,-1.88,-0.14,9.04
1535.43,-1.84,-0.18,8.96
1534.57,-1.91,-0.18,9.09
1535.62,-1.84,-0.23,9.1
1535.52,-2.0,-0.2,9.09
1535.14,-1.88,-0.22,9.19
1535.62,-1.8,-0.14,8.97
1535.24,-1.79,-0.23,9.06
1535.52,-1.98,-0.25,9.02
1535.43,-1.84,-0.17,9.13
1535.43,-1.97,-0.24,9.08
1535.52,-1.88,-0.21,8.99
1535.72,-1.86,-0.19,8.97
1535.43,-1.89,-0.28,9.07
1535.62,-1.88,-0.18,9.05
1535.81,-1.92,-0.2,9.05
1535.72,-1.9,-0.18,8.98
1535.62,-1.91,-0.19,8.97
1535.33,-1.81,-0.23,8.98
1535.62,-1.8,-0.19,9.06
1535.62,-1.91,-0.22,8.93
1535.62,-1.92,-0.17,8.91
1535.81,-1.92,-0.23,8.99
1535.24,-1.84,-0.17,9.18
1535.33,-1.89,-0.15,9.07
1535.52,-1.84,-0.19,9.04
1535.24,-1.8,-0.21,8.86
1535.24,-1.88,-0.24,8.93
1535.62,-1.88,-0.25,8.9
1535.52,-1.84,-0.24,9.11
1535.62,-1.89,-0.14,9.09
1535.14,-1.91,-0.23,9.03
1535.62,-1.83,-0.14,9.33
1535.05,-1.87,-0.26,9.0
1535.14,-1.92,-0.23,8.96
1535.62,-1.87,-0.23,9.04
1535.62,-1.8,-0.22,9.08
1535.43,-1.81,-0.24,9.07
1535.52,-1.93,-0.24,9.01
1535.24,-1.92,-0.22,9.05
1535.52,-1.87,-0.21,9.07
1535.62,-1.7,-0.13,9.15
1535.52,-1.88,-0.23,9.04
1535.52,-1.91,-0.23,9.04
1535.33,-1.99,-0.25,9.1
1535.43,-2.02,-0.28,8.95
1535.62,-1.96,-0.23,9.05
1535.14,-1.81,-0.14,9.05
1535.43,-1.85,-0.22,9.14
1535.91,-1.82,-0.23,9.09
1534.86,-1.83,-0.19,9.04
1535.33,-1.95,-0.26,8.97
1535.24,-1.89,-0.23,9.04
1534.66,-1.93,-0.18,8.96
1535.33,-1.87,-0.21,9.05
1535.33,-1.95,-0.22,8.92
1535.24,-1.83,-0.19,9.04
1535.62,-1.85,-0.24,8.98
1535.62,-1.92,-0.15,8.97
1535.33,-1.88,-0.21,8.98
1535.52,-1.97,-0.16,9.0
1535.72,-1.88,-0.25,9.01
1535.43,-1.81,-0.21,9.0
1535.24,-1.87,-0.2,8.99
1535.05,-1.87,-0.2,8.98
1534.86,-1.89,-0.19,9.02
1535.62,-1.9,-0.22,9.05
1535.52,-1.91,-0.19,8.98
1535.43,-1.9,-0.17,8.99
1535.62,-1.9,-0.17,9.03
1535.62,-1.92,-0.24,9.0
1535.62,-1.87,-0.16,9.07
1535.52,-1.81,-0.25,9.09
Altitude,ax,ay,az
1535.62,-1.86,-0.15,9.04
1535.52,-1.87,-0.26,9.04
1535.52,-1.87,-0.23,8.99
1535.33,-1.87,-0.23,8.98
1535.81,-1.92,-0.22,8.98
1535.62,-1.85,-0.2,9.06
1535.52,-1.83,-0.23,9.06
1535.62,-1.9,-0.22,9.05
1535.72,-1.94,-0.17,9.06
1535.33,-1.83,-0.21,9.0
1535.72,-1.87,-0.25,9.03
1535.81,-1.91,-0.23,9.03
1535.62,-1.88,-0.23,9.05
1536.0,-1.9,-0.24,8.99
1535.62,-1.88,-0.22,9.05
1535.43,-1.85,-0.19,8.93
1535.72,-1.87,-0.24,9.01
1535.43,-1.9,-0.25,9.09
1535.33,-1.9,-0.2,8.97
1534.95,-1.85,-0.23,9.06
1535.62,-1.88,-0.22,9.07
1535.52,-1.91,-0.16,9.02
1535.81,-1.89,-0.15,9.04
1535.72,-1.84,-0.2,9.09
1535.62,-1.89,-0.23,8.98
1535.52,-1.88,-0.16,9.02
1535.91,-1.88,-0.21,8.99
1535.52,-1.89,-0.21,9.09
1535.33,-1.87,-0.15,9.07
1535.62,-1.9,-0.26,8.96
1535.43,-1.9,-0.16,8.99
1535.52,-1.9,-0.22,8.95
1535.62,-1.89,-0.23,9.08
1535.72,-1.9,-0.2,8.95
1535.72,-1.9,-0.2,9.03
1535.62,-1.86,-0.24,9.0
1536.0,-1.84,-0.2,9.02
1535.43,-1.92,-0.18,9.05
1535.52,-1.9,-0.14,9.06
1535.24,-1.85,-0.25,9.11
1535.24,-1.88,-0.21,8.92
1535.72,-1.86,-0.2,9.04
1535.24,-1.94,-0.22,9.05
1535.33,-1.88,-0.2,9.02
1535.33,-1.87,-0.2,9.03
1534.95,-1.85,-0.25,9.03
1534.86,-1.91,-0.21,9.03
1535.52,-1.92,-0.19,9.01
1535.91,-1.92,-0.24,8.97
1535.24,-1.9,-0.16,9.06
1535.62,-1.88,-0.23,9.08
1535.24,-1.89,-0.24,8.98
1535.33,-1.86,-0.22,9.02
1534.95,-1.92,-0.22,9.08
1535.52,-1.87,-0.2,9.11
1535.33,-1.86,-0.23,9.05
1535.14,-1.86,-0.21,8.96
1535.52,-1.79,-0.19,9.08
1535.72,-1.92,-0.24,9.02
1535.62,-1.9,-0.19,9.05
1535.72,-1.96,-0.25,9.06
1536.29,-1.88,-0.18,9.08
1536.39,-1.91,-0.19,9.01
1536.0,-1.87,-0.24,8.96
1536.1,-1.9,-0.19,8.97
1535.81,-1.86,-0.21,9.05
1535.91,-1.91,-0.23,8.99
1535.62,-1.87,-0.24,8.99
1535.43,-1.89,-0.22,9.03
1535.24,-1.82,-0.21,9.0
1535.05,-1.9,-0.11,8.94
1535.24,-1.92,-0.19,9.05
1535.91,-1.86,-0.16,8.99
1535.81,-1.91,-0.19,9.02
1535.52,-1.87,-0.25,8.94
1536.29,-1.91,-0.18,9.04
1535.81,-1.93,-0.17,9.03
1535.91,-1.93,-0.23,9.05
1536.19,-1.92,-0.22,9.02
1536.0,-1.79,-0.2,8.96
1536.0,-1.83,-0.23,9.0
1536.29,-1.89,-0.2,9.02
1536.29,-1.88,-0.26,9.1
1536.0,-1.86,-0.27,8.99
1536.58,-1.81,-0.23,9.06
1536.1,-1.87,-0.26,9.08
1536.1,-1.91,-0.18,9.08
1535.91,-1.93,-0.2,9.04
1536.29,-1.84,-0.23,8.99
1536.29,-1.86,-0.23,9.0
1536.29,-1.94,-0.22,8.98
1536.29,-1.83,-0.23,9.08
1536.29,-1.94,-0.24,9.07
1535.91,-1.82,-0.18,9.07
1536.48,-1.93,-0.21,8.96
1536.39,-1.91,-0.2,9.04
1536.48,-1.88,-0.19,9.07
1536.1,-1.83,-0.18,9.0
1536.48,-1.81,-0.19,8.99
1535.91,-1.88,-0.22,9.03
1536.29,-1.88,-0.19,9.06
1536.48,-1.94,-0.25,8.99
1536.48,-1.79,-0.17,9.05
1536.77,-1.91,-0.2,9.03
1536.0,-1.87,-0.23,9.04
1536.0,-1.89,-0.17,9.0
1536.48,-1.87,-0.21,9.03
1536.48,-1.88,-0.19,9.03
1536.77,-1.9,-0.22,9.0
1536.19,-1.84,-0.19,9.0
1536.39,-1.9,-0.22,9.01
1536.77,-1.9,-0.25,9.08
1535.81,-1.85,-0.18,8.98
1536.67,-1.85,-0.27,8.95
1536.77,-1.85,-0.19,8.95
1536.67,-1.82,-0.16,9.0
1536.0,-1.87,-0.18,9.0
1536.29,-1.94,-0.22,9.0
1535.81,-1.89,-0.23,9.0
1536.1,-1.87,-0.21,9.0
1535.81,-1.85,-0.22,9.1
1536.77,-1.85,-0.2,9.1
1536.1,-1.79,-0.16,9.01
1536.58,-1.85,-0.24,9.01
1536.58,-1.88,-0.22,8.95
1536.39,-1.82,-0.17,9.03
1536.39,-1.91,-0.19,9.03
1536.39,-1.9,-0.17,8.98
1536.48,-1.87,-0.19,9.06
1536.48,-1.9,-0.17,8.98
1536.1,-1.86,-0.19,9.04
1536.39,-1.9,-0.18,9.04
1535.91,-1.86,-0.21,9.02
1535.72,-1.86,-0.25,9.0
1536.19,-1.92,-0.19,9.03
1536.1,-1.9,-0.22,9.02
1536.58,-1.92,-0.21,9.08
1536.19,-1.91,-0.28,9.01
1536.19,-1.86,-0.18,9.06
1536.0,-1.82,-0.22,9.02
1536.19,-1.82,-0.21,8.94
1536.77,-1.92,-0.19,9.01
1536.67,-1.93,-0.22,9.03
1536.48,-1.88,-0.17,8.97
1536.29,-1.89,-0.15,9.12
1536.58,-1.76,-0.23,9.05
1536.29,-1.84,-0.23,9.06
1536.48,-1.98,-0.23,9.0
1536.48,-1.84,-0.22,9.05
1536.48,-1.93,-0.21,8.99
1536.48,-1.89,-0.24,9.08
1536.77,-1.88,-0.18,9.01
1536.77,-1.83,-0.24,9.08
1536.77,-1.92,-0.18,9.02
1536.86,-1.86,-0.25,9.03
1536.39,-1.71,-0.22,9.0
1536.86,-1.87,-0.23,9.12
1536.58,-1.89,-0.24,9.08
1536.48,-1.93,-0.25,9.0
1536.77,-1.84,-0.21,9.02
1536.86,-1.84,-0.18,9.17
1536.77,-1.8,-0.16,9.02
1536.1,-1.88,-0.2,9.08
1536.48,-1.92,-0.21,9.02
1536.86,-1.96,-0.21,9.0
1536.58,-1.85,-0.21,8.92
1536.86,-1.86,-0.2,9.06
1536.48,-1.9,-0.21,8.99
1536.58,-1.92,-0.27,9.01
1536.86,-1.92,-0.2,9.09
1536.58,-1.9,-0.19,9.07
1536.39,-1.92,-0.24,9.05
1536.39,-1.92,-0.18,9.16
1536.77,-1.92,-0.21,8.99
1536.96,-1.85,-0.2,9.12
1536.77,-1.92,-0.19,8.92
1536.39,-1.88,-0.19,9.17
1536.86,-1.81,-0.17,9.0
1536.0,-1.91,-0.25,9.05
1536.48,-1.97,-0.19,9.06
1536.48,-1.87,-0.14,9.01
1536.77,-1.8,-0.17,9.13
1536.48,-1.83,-0.23,9.03
1536.67,-1.94,-0.23,8.94
1536.19,-1.98,-0.28,9.01
1536.58,-1.94,-0.17,9.06
1537.06,-1.87,-0.24,9.03
1535.81,-1.87,-0.19,9.07
1536.0,-1.87,-0.27,8.97
1536.29,-1.87,-0.19,9.0
1535.81,-1.88,-0.21,8.98
1536.1,-1.85,-0.18,9.06
1535.81,-1.9,-0.18,9.05
1536.39,-1.85,-0.19,9.02
1536.1,-1.89,-0.17,9.07
1536.19,-1.88,-0.17,8.98
1536.1,-1.85,-0.22,8.98
1536.19,-1.87,-0.25,8.94
1536.77,-1.89,-0.23,9.05
1536.29,-1.87,-0.2,9.0
1536.67,-1.87,-0.14,9.07
1537.25,-1.87,-0.25,9.05
1536.58,-1.98,-0.16,9.03
1536.19,-1.86,-0.23,8.97
1536.58,-1.88,-0.22,9.01
Altitude,ax,ay,az
1543.66,-1.9,-0.17,9.05
1543.76,-1.9,-0.26,9.05
1543.95,-2.04,-0.24,8.95
1544.24,-1.89,-0.21,8.97
1543.66,-1.82,-0.2,9.02
1543.86,-1.83,-0.19,9.09
1544.05,-1.84,-0.18,9.1
1543.95,-1.96,-0.24,9.05
1544.05,-1.96,-0.16,8.99
1544.33,-1.93,-0.22,9.11
1543.66,-1.82,-0.21,9.05
1544.24,-1.76,-0.19,9.07
1544.33,-1.9,-0.19,9.0
1544.24,-1.97,-0.22,9.01
1543.86,-1.95,-0.26,9.04
1544.24,-1.94,-0.18,9.05
1544.14,-1.8,-0.21,8.96
1544.05,-1.81,-0.24,9.08
1543.57,-1.9,-0.24,9.05
1544.14,-2.01,-0.2,8.99
1544.24,-1.91,-0.23,9.01
1544.24,-1.82,-0.15,9.04
1544.24,-1.85,-0.19,9.0
1544.72,-1.86,-0.17,9.09
1544.43,-1.98,-0.17,8.96
1544.53,-1.98,-0.23,9.06
1544.43,-1.93,-0.21,9.11
1544.62,-1.8,-0.18,9.03
1543.95,-1.8,-0.16,9.02
1544.14,-1.91,-0.21,9.05
1544.33,-1.97,-0.23,9.03
1544.14,-1.94,-0.23,9.01
1544.14,-1.85,-0.19,8.99
1544.24,-1.83,-0.15,9.11
1543.95,-1.84,-0.18,9.02
1544.33,-1.86,-0.17,9.11
1543.66,-1.88,-0.24,9.12
1543.47,-1.92,-0.2,8.97
1543.47,-1.95,-0.2,9.0
1543.66,-1.86,-0.18,9.01
1543.38,-1.83,-0.17,9.0
1544.24,-1.88,-0.14,8.97
1543.95,-1.92,-0.21,9.07
1544.14,-1.93,-0.18,9.01
1544.53,-1.92,-0.18,9.01
1544.33,-1.88,-0.21,9.05
1543.57,-1.82,-0.23,9.08
1543.95,-1.82,-0.18,9.07
1543.95,-1.86,-0.23,9.1
1543.57,-1.93,-0.17,9.06
1544.33,-1.91,-0.26,9.04
1544.14,-1.95,-0.19,8.96
1544.05,-1.88,-0.19,9.04
1544.05,-1.79,-0.15,9.0
1544.14,-1.95,-0.17,9.08
1544.14,-1.94,-0.26,9.0
1543.57,-1.94,-0.21,9.07
1543.66,-1.92,-0.15,9.22
1544.14,-1.91,-0.29,8.96
1543.76,-1.85,-0.16,9.12
1543.28,-1.88,-0.2,8.95
1543.57,-1.91,-0.22,8.91
1543.28,-1.94,-0.2,8.94
1543.95,-1.87,-0.18,9.05
1544.53,-1.83,-0.21,9.11
1544.24,-1.98,-0.17,8.96
1544.53,-1.83,-0.13,9.05
1543.95,-1.87,-0.22,9.05
1543.86,-1.87,-0.17,9.1
1544.24,-1.88,-0.2,9.04
1544.05,-1.95,-0.21,9.05
1544.43,-1.94,-0.2,8.98
1544.05,-1.81,-0.23,9.0
1544.05,-1.91,-0.19,8.96
1543.95,-1.81,-0.15,9.05
1544.14,-1.96,-0.15,9.03
1544.43,-1.92,-0.22,9.08
1544.24,-1.83,-0.2,8.95
1544.14,-1.82,-0.2,8.99
1544.14,-1.86,-0.23,9.01
1544.33,-1.85,-0.23,9.08
1544.14,-1.94,-0.18,9.02
1544.14,-1.9,-0.2,9.05
1544.14,-1.89,-0.19,9.03
1544.05,-1.91,-0.19,9.25
1543.76,-1.9,-0.19,9.1
1544.14,-1.85,-0.24,9.07
1544.14,-1.9,-0.16,9.1
1544.33,-1.86,-0.12,9.11
1544.43,-1.9,-0.22,8.98
1544.05,-1.86,-0.21,9.06
1543.95,-1.92,-0.23,9.05
1543.76,-1.91,-0.28,9.03
1544.05,-1.87,-0.2,9.05
1544.33,-1.84,-0.24,9.13
1544.33,-1.9,-0.17,9.01
1544.72,-1.94,-0.21,8.94
1544.14,-1.79,-0.19,9.16
1544.24,-1.82,-0.23,9.0
1544.43,-1.79,-0.22,9.0
1544.14,-1.92,-0.2,9.06
1544.05,-1.97,-0.23,9.11
1544.33,-1.93,-0.23,9.04
1544.62,-1.84,-0.19,9.04
1544.62,-1.79,-0.14,9.1
1544.53,-1.87,-0.22,9.0
1544.14,-1.88,-0.21,9.05
1544.24,-1.95,-0.21,9.11
1544.53,-1.95,-0.2,9.08
1544.43,-1.88,-0.18,8.94
1544.72,-1.83,-0.18,9.14
1543.86,-1.83,-0.22,9.03
1544.53,-1.92,-0.23,9.07
1544.05,-1.94,-0.19,8.96
1544.53,-1.96,-0.22,9.04
1544.72,-1.89,-0.22,9.0
1544.81,-1.84,-0.19,8.99
1544.53,-1.77,-0.15,9.0
1544.81,-1.88,-0.24,9.12
1544.81,-1.99,-0.22,9.1
1544.43,-1.9,-0.11,9.06
1544.53,-1.94,-0.18,9.01
1543.76,-1.96,-0.14,9.04
1544.62,-1.94,-0.17,9.05
1544.81,-1.87,-0.21,9.04
1544.72,-1.9,-0.23,9.07
1544.33,-1.84,-0.14,8.94
1544.72,-1.9,-0.23,9.06
1544.62,-1.87,-0.15,9.08
1544.53,-1.84,-0.17,8.95
1544.62,-1.81,-0.16,8.99
1544.72,-1.96,-0.18,8.98
1544.43,-1.93,-0.22,9.02
1544.24,-1.92,-0.21,9.09
1544.43,-1.86,-0.19,9.03
1544.53,-1.8,-0.17,8.98
1544.33,-1.89,-0.19,8.95
1544.43,-1.93,-0.15,9.1
1544.14,-1.92,-0.21,8.97
1544.72,-1.96,-0.22,9.01
1544.43,-1.81,-0.17,8.98
1544.24,-1.79,-0.17,9.12
1544.33,-1.85,-0.18,9.0
1545.01,-1.99,-0.19,9.1
1544.53,-2.03,-0.21,8.93
1544.72,-1.93,-0.19,8.97
1544.33,-1.79,-0.24,8.98
1544.81,-1.74,-0.18,9.09
1544.91,-1.87,-0.22,9.04
Altitude,ax,ay,az
1544.81,-1.86,-0.22,9.09
1543.95,-1.86,-0.17,9.01
1544.05,-1.82,-0.19,8.97
1544.33,-1.92,-0.21,9.02
1544.33,-1.87,-0.13,9.04
1544.72,-1.86,-0.21,9.08
1544.81,-1.92,-0.2,8.9
1544.91,-1.86,-0.25,8.94
1544.24,-1.83,-0.2,9.05
1544.24,-1.81,-0.17,8.91
1544.43,-1.93,-0.22,9.11
1544.62,-1.9,-0.18,9.02
1544.24,-1.89,-0.21,9.02
1544.43,-1.9,-0.21,9.12
1544.43,-1.92,-0.18,9.07
1544.24,-1.91,-0.17,8.99
1544.53,-1.93,-0.16,9.03
1544.53,-1.96,-0.23,9.04
1544.72,-1.89,-0.22,9.02
1543.95,-1.87,-0.21,9.05
1544.33,-1.84,-0.1,9.11
1544.43,-1.83,-0.13,9.06
1544.43,-1.88,-0.16,9.06
1544.24,-1.84,-0.25,8.95
1544.14,-1.95,-0.15,9.03
1543.95,-1.92,-0.17,9.09
1544.05,-1.87,-0.27,9.02
1543.86,-1.87,-0.18,9.07
1544.43,-1.82,-0.17,8.97
1544.43,-1.85,-0.22,9.11
1544.43,-1.83,-0.23,8.95
1544.72,-1.89,-0.25,9.01
1544.43,-1.91,-0.23,9.06
1544.53,-2.03,-0.19,8.98
1544.24,-1.85,-0.15,8.94
1544.14,-1.81,-0.18,9.07
1543.76,-1.78,-0.2,9.1
1543.66,-1.93,-0.21,9.02
1544.14,-1.97,-0.19,9.05
1544.43,-1.97,-0.23,9.06
1544.05,-1.87,-0.23,9.11
1544.24,-1.86,-0.23,8.97
1544.24,-1.87,-0.21,9.02
1544.33,-1.91,-0.18,9.01
1544.24,-1.9,-0.22,9.09
1544.14,-1.89,-0.17,9.07
1544.62,-1.84,-0.17,9.01
1544.62,-1.92,-0.2,9.12
1544.05,-1.87,-0.18,9.04
1544.14,-1.89,-0.19,9.04
1544.24,-1.88,-0.21,8.93
1543.95,-1.88,-0.21,9.08
1544.43,-1.89,-0.18,9.01
1544.05,-1.91,-0.21,8.96
1544.53,-1.9,-0.19,9.05
1544.72,-1.85,-0.16,8.97
1544.24,-1.88,-0.22,9.02
1544.14,-1.97,-0.17,9.01
1543.86,-1.9,-0.21,9.04
1544.24,-1.83,-0.23,9.07
1544.24,-1.84,-0.25,9.08
1543.66,-1.88,-0.14,9.06
1544.43,-1.93,-0.18,8.97
1543.47,-1.83,-0.19,9.04
1544.24,-1.82,-0.17,9.07
1544.53,-1.87,-0.24,9.02
1544.24,-1.96,-0.19,9.0
1543.38,-1.95,-0.26,8.97
1544.33,-1.92,-0.19,8.99
1544.14,-1.86,-0.2,9.08
1544.05,-1.83,-0.26,9.05
1544.24,-1.89,-0.16,9.04
1544.53,-1.93,-0.2,8.99
1544.33,-1.86,-0.21,9.16
1544.62,-1.91,-0.17,8.94
1544.43,-1.82,-0.2,9.03
1544.43,-1.84,-0.21,9.03
1544.33,-1.9,-0.18,9.01
1544.43,-1.87,-0.27,8.96
1544.14,-1.95,-0.16,8.99
1544.62,-1.87,-0.23,9.02
1544.43,-1.87,-0.19,9.05
1544.91,-1.75,-0.17,8.92
1544.43,-1.83,-0.23,9.06
1544.53,-1.87,-0.16,9.11
1544.62,-1.88,-0.21,9.11
1544.91,-1.9,-0.21,8.96
1543.76,-1.86,-0.19,9.0
1543.95,-1.87,-0.17,9.0
1544.05,-1.8,-0.2,9.03
Altitude,ax,ay,az
1547.11,-1.82,-0.21,8.96
1547.11,-1.88,-0.19,9.16
1547.02,-1.8,-0.25,8.99
1546.92,-1.9,-0.23,9.05
1547.3,-1.82,-0.24,9.04
1547.3,-1.78,-0.22,9.04
1546.25,-1.86,-0.2,9.06
1547.11,-1.83,-0.2,9.12
1546.73,-1.78,-0.23,9.08
1546.63,-1.83,-0.26,9.04
1546.73,-1.83,-0.21,8.97
1546.25,-1.77,-0.26,8.97
1547.3,-1.86,-0.23,9.16
1546.83,-1.82,-0.25,9.13
1547.11,-1.79,-0.23,9.1
1546.92,-1.79,-0.19,9.08
1546.15,-1.74,-0.27,9.0
1546.63,-1.8,-0.2,9.1
1547.21,-1.82,-0.28,9.08
1546.25,-1.79,-0.28,8.96
1547.21,-1.78,-0.18,9.09
1546.83,-1.8,-0.2,9.11
1546.63,-1.76,-0.25,9.01
1546.54,-1.8,-0.24,9.14
1546.54,-1.72,-0.26,9.02
1546.15,-1.8,-0.27,9.1
1546.92,-1.76,-0.23,9.1
1547.11,-1.76,-0.18,9.09
1546.54,-1.83,-0.23,9.1
1547.11,-1.87,-0.25,9.06
1546.92,-1.84,-0.21,9.06
1547.02,-1.79,-0.24,9.01
1546.92,-1.83,-0.23,8.98
1547.02,-1.84,-0.31,9.03
1547.02,-1.73,-0.25,9.06
1546.35,-1.82,-0.27,9.02
1547.02,-1.8,-0.25,9.04
1546.83,-1.83,-0.26,9.06
1547.3,-1.8,-0.24,9.1
1547.02,-1.82,-0.28,9.15
1546.63,-1.81,-0.29,9.0
1546.63,-1.75,-0.23,9.08
1546.44,-1.82,-0.24,9.07
1546.73,-1.87,-0.22,9.07
1545.87,-1.85,-0.24,9.06
1547.5,-1.8,-0.25,9.05
1546.83,-1.83,-0.24,9.03
1546.92,-1.87,-0.23,9.15
1546.63,-1.81,-0.27,9.03
1546.92,-1.87,-0.23,9.02
1547.02,-1.9,-0.27,9.16
1547.02,-1.79,-0.24,8.96
1546.73,-1.84,-0.27,9.13
1547.02,-1.79,-0.27,9.04
1547.11,-1.78,-0.29,9.01
1547.11,-1.87,-0.26,9.09
1547.21,-1.76,-0.25,9.14
1547.3,-1.76,-0.23,9.03
1547.02,-1.85,-0.24,9.05
1546.54,-1.8,-0.27,9.06
1546.63,-1.73,-0.27,8.99
1546.83,-1.81,-0.23,8.98
1546.63,-1.75,-0.24,9.02
1546.92,-1.84,-0.23,9.07
1546.63,-1.83,-0.23,9.03
1546.35,-1.82,-0.27,9.1
1545.96,-1.86,-0.23,9.07
1546.92,-1.79,-0.26,9.08
1546.83,-1.82,-0.21,9.04
1546.44,-1.8,-0.25,9.17
1546.83,-1.76,-0.23,9.07
1546.92,-1.82,-0.22,9.11
1546.73,-1.81,-0.19,9.15
1546.54,-1.75,-0.29,9.1
1546.63,-1.84,-0.24,9.05
1546.63,-1.79,-0.17,9.07
1546.83,-1.84,-0.27,9.0
1546.25,-1.86,-0.25,9.06
1546.15,-1.79,-0.26,9.09
1546.35,-1.79,-0.22,8.95
1547.02,-1.85,-0.24,9.14
1546.73,-1.81,-0.26,9.05
1546.63,-1.83,-0.22,8.94
1546.25,-1.81,-0.24,9.08
1546.54,-1.82,-0.31,9.05
1546.44,-1.85,-0.28,9.02
1546.54,-1.79,-0.19,9.03
1546.63,-1.79,-0.24,8.96
1546.92,-1.82,-0.19,9.08
1546.92,-1.82,-0.23,9.11
1547.11,-1.84,-0.24,9.04
1546.83,-1.76,-0.29,8.96
1546.92,-1.81,-0.28,8.99
1546.63,-1.79,-0.24,9.02
1546.92,-1.79,-0.26,9.06
1546.73,-1.84,-0.2,9.01
1546.63,-1.84,-0.26,9.11
1546.83,-1.74,-0.21,9.03
1547.21,-1.71,-0.24,8.94
1547.4,-1.83,-0.19,9.0
1547.3,-1.86,-0.21,9.0
1547.21,-1.81,-0.24,9.06
1547.69,-1.79,-0.23,9.16
1547.21,-1.75,-0.36,9.04
1547.3,-1.8,-0.3,9.02
1546.44,-1.87,-0.27,9.11
1547.59,-1.87,-0.26,9.0
1547.21,-1.79,-0.24,9.0
1546.54,-1.79,-0.29,8.99
1547.11,-1.85,-0.29,8.93
1547.21,-1.79,-0.25,9.05
1547.11,-1.8,-0.24,8.99
1546.63,-1.76,-0.28,9.01
1546.63,-1.8,-0.26,9.02
1546.92,-1.8,-0.24,9.01
1546.54,-1.87,-0.19,9.01
1546.73,-1.81,-0.18,8.99
1547.21,-1.78,-0.23,9.07
1547.21,-1.77,-0.21,9.16
1547.11,-1.77,-0.23,9.1
1547.3,-1.85,-0.24,9.05
1547.21,-1.87,-0.25,9.06
1547.11,-1.8,-0.26,9.0
1546.83,-1.84,-0.28,9.11
1547.21,-1.75,-0.23,8.98
1546.73,-1.86,-0.22,9.02
1547.59,-1.82,-0.26,9.07
1546.73,-1.78,-0.26,9.02
1546.92,-1.73,-0.24,8.99
1546.63,-1.87,-0.25,9.02
1547.02,-1.81,-0.21,9.03
1547.4,-1.83,-0.25,9.13
1547.11,-1.84,-0.24,9.11
1546.73,-1.83,-0.23,9.01
1546.92,-1.89,-0.25,9.02
1547.59,-1.83,-0.21,9.0
1547.02,-1.74,-0.28,9.02
1547.4,-1.79,-0.29,9.02
1547.4,-1.83,-0.28,9.02
1547.4,-1.81,-0.24,9.02
1546.73,-1.87,-0.2,9.14
1547.21,-1.7,-0.24,9.02
1546.92,-1.82,-0.28,9.13
1547.11,-1.83,-0.3,9.05
1546.92,-1.85,-0.28,8.95
1546.92,-1.81,-0.22,9.13
1546.15,-1.81,-0.27,9.07
1545.96,-1.85,-0.26,8.94
1546.73,-1.81,-0.2,9.08
1546.92,-1.79,-0.24,9.05
1546.83,-1.81,-0.26,8.97
1547.02,-1.86,-0.23,8.98
1547.21,-1.77,-0.33,9.09
1547.02,-1.83,-0.24,9.04
1547.02,-1.78,-0.27,8.89
1546.92,-1.86,-0.19,9.01
1546.44,-1.84,-0.23,9.04
1547.21,-1.88,-0.25,9.04
1546.92,-1.81,-0.26,9.03
1547.3,-1.81,-0.22,9.1
1546.92,-1.84,-0.23,9.05
1547.11,-1.81,-0.19,9.08
1547.21,-1.8,-0.19,9.04
1546.92,-1.77,-0.23,9.02
1547.02,-1.83,-0.25,9.03
1546.73,-1.76,-0.24,9.05
1546.44,-1.84,-0.2,9.09
1546.44,-1.84,-0.24,9.01
1546.73,-1.77,-0.23,9.1
1546.63,-1.85,-0.22,9.0
1546.92,-1.83,-0.24,9.11
1545.96,-1.81,-0.22,9.05
1546.54,-1.9,-0.21,9.08
1546.63,-1.88,-0.22,9.09
1547.02,-1.78,-0.24,9.05
1546.83,-1.77,-0.29,9.07
1547.11,-1.83,-0.25,9.03
1546.63,-1.86,-0.28,9.04
1547.3,-1.84,-0.26,9.11
1546.63,-1.89,-0.24,9.04
1546.73,-1.84,-0.28,9.01
1546.54,-1.76,-0.26,9.03
1546.54,-1.78,-0.21,9.04
1546.06,-1.8,-0.27,9.0
1547.02,-1.76,-0.27,9.04
1547.02,-1.81,-0.23,9.05
1546.92,-1.88,-0.28,9.1
1546.63,-1.78,-0.2,9.1
1547.02,-1.81,-0.21,9.07
1547.21,-1.85,-0.21,9.08
1547.21,-1.83,-0.27,9.17
1547.02,-1.81,-0.26,9.06
1546.73,-1.79,-0.23,9.08
1546.35,-1.8,-0.27,9.01
1546.63,-1.85,-0.29,9.02
1546.92,-1.82,-0.18,9.05
1546.44,-1.86,-0.3,8.99
1546.92,-1.76,-0.25,9.06
1546.92,-1.79,-0.21,9.01
1547.11,-1.79,-0.25,9.0
1547.02,-1.83,-0.26,9.2
1546.83,-1.8,-0.21,8.99
1546.73,-1.85,-0.22,9.07
1547.02,-1.84,-0.23,9.01
1547.11,-1.76,-0.28,9.01
1546.63,-1.85,-0.24,9.07
1547.11,-1.77,-0.28,9.03
1547.02,-1.86,-0.23,9.06
1546.83,-1.85,-0.29,9.2
1547.02,-1.78,-0.21,9.05
1547.21,-1.8,-0.2,9.11
1546.83,-1.85,-0.26,9.02
1546.06,-1.75,-0.22,9.12
1547.5,-1.79,-0.24,9.08
1547.3,-1.82,-0.24,9.01
1547.11,-1.75,-0.27,8.96
1546.73,-1.79,-0.24,9.03
1546.15,-1.8,-0.27,9.07
1546.73,-1.83,-0.3,9.03
1547.02,-1.75,-0.26,9.05
1547.78,-1.75,-0.23,9.07
1547.11,-1.84,-0.2,9.08
1546.92,-1.88,-0.21,9.12
